"Time (s)","Acceleration x (m/s^2)","Acceleration y (m/s^2)","Acceleration z (m/s^2)"
2.281318500E-2,4.560719967E0,5.522634506E0,6.733402729E0
2.493230000E-2,4.541577339E0,5.498706341E0,6.733402729E0
2.705110200E-2,4.522434711E0,5.508277893E0,6.738188744E0
2.916995600E-2,4.484149456E0,5.517848969E0,6.771687984E0
3.128881000E-2,4.460221291E0,5.546562672E0,6.805187702E0
3.340761200E-2,4.421936035E0,5.556134224E0,6.848258495E0
3.552646700E-2,4.383651257E0,5.560919762E0,6.872186661E0
3.764532100E-2,4.350151539E0,5.565705299E0,6.924828529E0
3.976417500E-2,4.311866283E0,5.560919762E0,6.958328247E0
4.188297700E-2,4.268795490E0,5.570491314E0,7.010970116E0
4.400183100E-2,4.249652863E0,5.575276852E0,7.049255371E0
4.612068500E-2,4.244867325E0,5.556134224E0,7.077969551E0
4.823954000E-2,4.211368084E0,5.527420521E0,7.149754047E0
5.035834200E-2,4.197010994E0,5.522634506E0,7.183253765E0
5.247719600E-2,4.187439442E0,5.522634506E0,7.211967468E0
5.459605000E-2,4.173082829E0,5.498706341E0,7.245467186E0
5.671490400E-2,4.168296814E0,5.484349728E0,7.274180889E0
5.883370600E-2,4.158725739E0,5.479563713E0,7.298109055E0
6.095256000E-2,4.153940201E0,5.489135265E0,7.312466145E0
6.307141500E-2,4.153940201E0,5.450850010E0,7.336394310E0
6.519026900E-2,4.153940201E0,5.460421085E0,7.374679565E0
6.730907100E-2,4.139583111E0,5.455635548E0,7.389036179E0
6.942787300E-2,4.125226021E0,5.469992638E0,7.408178806E0
7.154677900E-2,4.115654945E0,5.465207100E0,7.412964344E0
7.366563300E-2,4.082155228E0,5.474778175E0,7.417750359E0
7.578443500E-2,4.096512318E0,5.455635548E0,7.436892986E0
7.790329000E-2,4.077369690E0,5.479563713E0,7.432106972E0
8.002214400E-2,4.048655987E0,5.455635548E0,7.427321434E0
8.214099800E-2,4.029513359E0,5.465207100E0,7.403393269E0
8.425980000E-2,4.024727821E0,5.469992638E0,7.384250641E0
8.637865400E-2,3.996013880E0,5.460421085E0,7.374679565E0
8.849750800E-2,3.962514400E0,5.455635548E0,7.345965385E0
9.061636200E-2,3.943371773E0,5.446064472E0,7.336394310E0
9.273516500E-2,3.900300980E0,5.450850010E0,7.312466145E0
9.485396700E-2,3.866801500E0,5.446064472E0,7.302894592E0
9.697287300E-2,3.833301783E0,5.426921844E0,7.274180889E0
9.909167500E-2,3.809373617E0,5.422136307E0,7.255038261E0
1.012105290E-1,3.756731510E0,5.407779217E0,7.250252724E0
1.033293830E-1,3.718446493E0,5.402993679E0,7.221538544E0
1.054482370E-1,3.656233072E0,5.374279499E0,7.211967468E0
1.075670920E-1,3.608376503E0,5.374279499E0,7.235895634E0
1.096858940E-1,3.589233875E0,5.340780258E0,7.240681171E0
1.118047480E-1,3.522234917E0,5.316852093E0,7.365108013E0
1.139236020E-1,3.536591768E0,5.254638672E0,7.829315662E0
1.160424560E-1,3.550948858E0,5.230710506E0,7.848458290E0
1.181612580E-1,3.579662561E0,5.201996326E0,7.819744587E0
1.202801120E-1,3.584448338E0,5.168497086E0,7.795815945E0
1.223989670E-1,3.589233875E0,5.168497086E0,7.767102242E0
1.245177690E-1,3.565305710E0,5.158925533E0,7.700103283E0
1.266366230E-1,3.560520172E0,5.154139996E0,7.657032490E0
1.287554770E-1,3.546163082E0,5.154139996E0,7.599604607E0
1.308743310E-1,3.517449379E0,5.168497086E0,7.546962738E0
1.329931850E-1,3.483949661E0,5.168497086E0,7.499105930E0
1.351119350E-1,3.455235958E0,5.173282623E0,7.432106972E0
1.372308420E-1,3.426522017E0,5.221138954E0,7.365108013E0
1.393496960E-1,3.383451223E0,5.235496044E0,7.312466145E0
1.414685500E-1,3.378665686E0,5.249852657E0,7.264609337E0
1.435873520E-1,3.345165968E0,5.268995285E0,7.231110096E0
1.457062060E-1,3.297309637E0,5.288137913E0,7.207181931E0
1.478250600E-1,3.278167009E0,5.307280540E0,7.154539585E0
1.499439150E-1,3.259024382E0,5.335994720E0,7.116254330E0
1.520627170E-1,3.254238844E0,5.350351334E0,7.077969551E0
1.541815710E-1,3.220739365E0,5.359922886E0,7.049255371E0
1.563004250E-1,3.201596737E0,5.355136871E0,7.034898758E0
1.584192270E-1,3.177668571E0,5.379065514E0,7.010970116E0
1.605380810E-1,3.158525944E0,5.383851051E0,6.996613503E0
1.626569350E-1,3.134597778E0,5.402993679E0,6.982256413E0
1.647757900E-1,3.101098061E0,5.388636589E0,6.996613503E0
1.668946440E-1,3.096312523E0,5.393422127E0,6.996613503E0
1.690134460E-1,3.081955671E0,5.407779217E0,6.991827965E0
1.711323000E-1,3.053241730E0,5.402993679E0,7.006184578E0
1.732511540E-1,3.053241730E0,5.402993679E0,7.044469833E0
1.753700080E-1,3.034099102E0,5.407779217E0,7.063612461E0
1.774888100E-1,3.024527788E0,5.393422127E0,7.082755089E0
1.796076650E-1,3.005385160E0,5.398207664E0,7.121040344E0
1.817265710E-1,2.981456995E0,5.412564754E0,7.159325123E0
1.838453730E-1,2.976671457E0,5.393422127E0,7.192824841E0
1.859641750E-1,2.967100143E0,5.398207664E0,7.235895634E0
1.880830290E-1,2.981456995E0,5.379065514E0,7.269395351E0
1.902018830E-1,2.986242771E0,5.388636589E0,7.302894592E0
1.923207370E-1,2.981456995E0,5.364708424E0,7.317251682E0
1.944395400E-1,2.967100143E0,5.364708424E0,7.350750923E0
1.965583940E-1,2.986242771E0,5.355136871E0,7.384250641E0
1.986772480E-1,2.981456995E0,5.355136871E0,7.403393269E0
2.007961020E-1,2.986242771E0,5.350351334E0,7.436892986E0
2.029149040E-1,2.976671457E0,5.345565796E0,7.475177765E0
2.050337580E-1,2.976671457E0,5.355136871E0,7.499105930E0
2.071526120E-1,2.976671457E0,5.359922886E0,7.513463020E0
2.092714150E-1,2.967100143E0,5.374279499E0,7.532605648E0
2.113902690E-1,2.967100143E0,5.350351334E0,7.537391186E0
2.135091230E-1,2.957528830E0,5.364708424E0,7.551748276E0
2.156279770E-1,2.943171740E0,5.340780258E0,7.556533813E0
2.177468310E-1,2.928814888E0,5.345565796E0,7.556533813E0
2.198656330E-1,2.928814888E0,5.350351334E0,7.570890903E0
2.219844870E-1,2.909672260E0,5.355136871E0,7.594819069E0
2.241033420E-1,2.895315409E0,5.350351334E0,7.585247993E0
2.262221960E-1,2.880958557E0,5.359922886E0,7.585247993E0
2.283409980E-1,2.876172781E0,5.345565796E0,7.566105366E0
2.304598520E-1,2.852244616E0,5.335994720E0,7.575676441E0
2.325787060E-1,2.871387243E0,5.345565796E0,7.551748276E0
2.346975600E-1,2.861815929E0,5.335994720E0,7.551748276E0
2.368163620E-1,2.847458839E0,5.335994720E0,7.546962738E0
2.389352170E-1,2.857030153E0,5.331208706E0,7.537391186E0
2.410540710E-1,2.857030153E0,5.326423168E0,7.518248558E0
2.431728730E-1,2.837887764E0,5.321637630E0,7.527820110E0
2.452917270E-1,2.857030153E0,5.297709465E0,7.537391186E0
2.474105810E-1,2.852244616E0,5.288137913E0,7.503891945E0
2.495294350E-1,2.847458839E0,5.288137913E0,7.508677483E0
2.516482900E-1,2.852244616E0,5.288137913E0,7.484749317E0
2.537670920E-1,2.871387243E0,5.273781300E0,7.470392227E0
2.558859460E-1,2.857030153E0,5.292923450E0,7.460821152E0
2.580048000E-1,2.847458839E0,5.302495003E0,7.446464062E0
2.601236540E-1,2.847458839E0,5.302495003E0,7.436892986E0
2.622424560E-1,2.852244616E0,5.312066078E0,7.451249599E0
2.643613100E-1,2.828316450E0,5.321637630E0,7.451249599E0
2.664801650E-1,2.799602509E0,5.335994720E0,7.451249599E0
2.685990190E-1,2.766103029E0,5.345565796E0,7.456035137E0
2.707178210E-1,2.670390129E0,5.350351334E0,7.456035137E0
2.728366750E-1,2.627319336E0,5.359922886E0,7.456035137E0
2.749555290E-1,2.565105915E0,5.359922886E0,7.441678524E0
2.770743830E-1,2.560320139E0,5.355136871E0,7.465606689E0
2.791931850E-1,2.507678032E0,5.345565796E0,7.451249599E0
2.813120400E-1,2.464607239E0,5.340780258E0,7.489534855E0
2.834308940E-1,2.464607239E0,5.316852093E0,7.475177765E0
2.855497480E-1,2.421536446E0,5.316852093E0,7.494320393E0
2.876685500E-1,2.392822742E0,5.312066078E0,7.503891945E0
2.897874040E-1,2.368894339E0,5.312066078E0,7.499105930E0
2.919062580E-1,2.359323025E0,5.297709465E0,7.518248558E0
2.940251120E-1,2.340180635E0,5.283352375E0,7.527820110E0
2.961439150E-1,2.354537487E0,5.278566837E0,7.546962738E0
2.982627690E-1,2.344966173E0,5.264209747E0,7.542177200E0
3.003816230E-1,2.340180635E0,5.268995285E0,7.590033531E0
3.025004770E-1,2.335394859E0,5.259424210E0,7.590033531E0
3.046192790E-1,2.349751949E0,5.254638672E0,7.609176159E0
3.067381330E-1,2.335394859E0,5.240281582E0,7.637889862E0
3.088569870E-1,2.340180635E0,5.240281582E0,7.652246952E0
3.109758420E-1,2.330609322E0,5.225924492E0,7.652246952E0
3.130946960E-1,2.335394859E0,5.225924492E0,7.690532207E0
3.152134980E-1,2.335394859E0,5.240281582E0,7.714460373E0
3.173323520E-1,2.321038008E0,5.221138954E0,7.728816986E0
3.194512060E-1,2.325823545E0,5.216353416E0,7.747959614E0
3.215700080E-1,2.282752752E0,5.206781864E0,7.762316704E0
3.236888620E-1,2.292324066E0,5.206781864E0,7.786244869E0
3.258077170E-1,2.277967215E0,5.221138954E0,7.800601959E0
3.279265710E-1,2.277967215E0,5.211567879E0,7.824530125E0
3.300454250E-1,2.311466694E0,5.216353416E0,7.834101200E0
3.321642270E-1,2.301895380E0,5.221138954E0,7.872386456E0
3.342830810E-1,2.311466694E0,5.225924492E0,7.896314621E0
3.364019350E-1,2.287538528E0,5.225924492E0,7.939385414E0
3.385207900E-1,2.268395901E0,5.221138954E0,7.977670670E0
3.406395920E-1,2.254039049E0,5.240281582E0,7.996813297E0
3.427584460E-1,2.234896421E0,5.230710506E0,8.015955925E0
3.448773000E-1,2.263610125E0,5.240281582E0,8.020741463E0
3.469961540E-1,2.225325108E0,5.235496044E0,8.035098076E0
3.491149560E-1,2.215753794E0,5.240281582E0,8.054241180E0
3.512338100E-1,2.239681959E0,5.221138954E0,8.063812256E0
3.533526650E-1,2.249253273E0,5.249852657E0,8.063812256E0
3.554714670E-1,2.234896421E0,5.230710506E0,8.073383331E0
3.575903210E-1,2.215753794E0,5.230710506E0,8.059026718E0
3.597091750E-1,2.254039049E0,5.230710506E0,8.044670105E0
3.618280290E-1,2.263610125E0,5.245067120E0,8.035098076E0
3.639468830E-1,2.215753794E0,5.259424210E0,8.015955925E0
3.660656850E-1,2.230110645E0,5.249852657E0,8.006384850E0
3.681845400E-1,2.234896421E0,5.254638672E0,8.015955925E0
3.703033940E-1,2.124826431E0,5.249852657E0,7.982456207E0
3.724222480E-1,2.143969059E0,5.264209747E0,8.015955925E0
3.745410500E-1,2.086541414E0,5.254638672E0,7.977670670E0
3.766599040E-1,2.048256159E0,5.240281582E0,7.934599876E0
3.787787580E-1,2.072184324E0,5.221138954E0,7.939385414E0
3.808976120E-1,2.053041935E0,5.221138954E0,7.925028801E0
3.830164150E-1,1.971685886E0,5.187639713E0,7.886743546E0
3.851352690E-1,1.957328916E0,5.178068161E0,7.886743546E0
3.872541230E-1,2.019542217E0,5.158925533E0,7.886743546E0
3.893729770E-1,1.971685886E0,5.130211830E0,7.901100159E0
3.914917790E-1,1.866401672E0,5.096712112E0,7.862815380E0
3.936106330E-1,1.804188251E0,5.067998409E0,7.848458290E0
3.957294870E-1,1.804188251E0,5.067998409E0,7.843672752E0
3.978483420E-1,1.866401672E0,5.067998409E0,7.867600918E0
3.999671440E-1,1.880758643E0,5.072783947E0,7.867600918E0
4.020859980E-1,1.828116536E0,5.024927616E0,7.838887215E0
4.042048520E-1,1.718046665E0,5.000999451E0,7.819744587E0
4.063237060E-1,1.694118381E0,4.996213913E0,7.824530125E0
4.084425080E-1,1.679761529E0,5.000999451E0,7.824530125E0
4.105613620E-1,1.708475351E0,5.005784988E0,7.862815380E0
4.126802170E-1,1.713261008E0,5.015356064E0,7.848458290E0
4.147990710E-1,1.732403636E0,5.024927616E0,7.858029366E0
4.169179250E-1,1.761117458E0,5.024927616E0,7.877171993E0
4.190367270E-1,1.832902193E0,5.048855782E0,7.905886173E0
4.211555810E-1,1.751546144E0,5.024927616E0,7.901100159E0
4.232744350E-1,1.622333765E0,4.996213913E0,7.872386456E0
4.253932900E-1,1.569691658E0,4.986642361E0,7.910671711E0
4.275120920E-1,1.550549030E0,4.991427898E0,7.939385414E0
4.296309460E-1,1.531406522E0,5.020142078E0,7.963313580E0
4.317498000E-1,1.521835208E0,5.029713154E0,7.992027760E0
4.338686020E-1,1.526620865E0,5.020142078E0,8.011170387E0
4.359874560E-1,1.526620865E0,5.005784988E0,8.039883614E0
4.381063100E-1,1.517049551E0,4.991427898E0,8.073383331E0
4.402251650E-1,1.531406522E0,4.962714195E0,8.116454124E0
4.423440190E-1,1.531406522E0,4.934000492E0,8.154739380E0
4.444628210E-1,1.540977836E0,4.929214478E0,8.183453560E0
4.465816750E-1,1.540977836E0,4.914857864E0,8.216953278E0
4.487005290E-1,1.540977836E0,4.905286312E0,8.255238533E0
4.508193830E-1,1.536192179E0,4.895715237E0,8.288737297E0
4.529381850E-1,1.521835208E0,4.871787071E0,8.322237015E0
4.550570400E-1,1.517049551E0,4.905286312E0,8.331808090E0
4.571758940E-1,1.502692580E0,4.900500774E0,8.355736732E0
4.592947480E-1,1.488335729E0,4.919643402E0,8.374878883E0
4.614134980E-1,1.473978758E0,4.948357105E0,8.374878883E0
4.635324040E-1,1.478764415E0,4.957928658E0,8.384450912E0
4.656512580E-1,1.483550072E0,4.981856823E0,8.384450912E0
4.677701120E-1,1.478764415E0,4.991427898E0,8.379665375E0
4.698889670E-1,1.488335729E0,5.015356064E0,8.394021988E0
4.720077690E-1,1.493121386E0,5.034498692E0,8.398807526E0
4.741266230E-1,1.517049551E0,5.034498692E0,8.408378601E0
4.762454770E-1,1.531406522E0,5.053641319E0,8.417949677E0
4.783643310E-1,1.526620865E0,5.077569485E0,8.417949677E0
4.804831330E-1,1.545763373E0,5.077569485E0,8.417949677E0
4.826019870E-1,1.550549030E0,5.077569485E0,8.451449394E0
4.847208420E-1,1.564906001E0,5.087141037E0,8.451449394E0
4.868396960E-1,1.574477315E0,5.096712112E0,8.456234932E0
4.889584980E-1,1.588834286E0,5.082355499E0,8.451449394E0
4.910773520E-1,1.593619823E0,5.091926575E0,8.461020470E0
4.931962060E-1,1.603191137E0,5.096712112E0,8.451449394E0
4.953150600E-1,1.607976794E0,5.091926575E0,8.480163574E0
4.974338620E-1,1.617548108E0,5.101497650E0,8.489734650E0
4.995527170E-1,1.641476393E0,5.130211830E0,8.475378036E0
5.016715710E-1,1.636690736E0,5.125426292E0,8.504091263E0
5.037904250E-1,1.627119422E0,5.130211830E0,8.513663292E0
5.059092270E-1,1.631905079E0,5.144568920E0,8.532805443E0
5.080280810E-1,1.627119422E0,5.144568920E0,8.547162056E0
5.101473000E-1,1.617548108E0,5.149354458E0,8.566305161E0
5.122657900E-1,1.593619823E0,5.158925533E0,8.580661774E0
5.143845920E-1,1.584048629E0,5.139782906E0,8.580661774E0
5.165034460E-1,1.569691658E0,5.144568920E0,8.599804878E0
5.186223000E-1,1.536192179E0,5.130211830E0,8.633303642E0
5.207411540E-1,1.521835208E0,5.120640278E0,8.628518105E0
5.228599560E-1,1.483550072E0,5.106283665E0,8.633303642E0
5.249788100E-1,1.464407444E0,5.091926575E0,8.647661209E0
5.270976650E-1,1.445264935E0,5.087141037E0,8.652446747E0
5.292165190E-1,1.421336651E0,5.072783947E0,8.652446747E0
5.313353730E-1,1.397408366E0,5.058426857E0,8.647661209E0
5.334541750E-1,1.349551916E0,5.034498692E0,8.657232285E0
5.355730290E-1,1.330409408E0,5.020142078E0,8.666803360E0
5.376918830E-1,1.320838094E0,4.986642361E0,8.685946465E0
5.398107370E-1,1.311266780E0,4.972285271E0,8.671588898E0
5.419295400E-1,1.301695466E0,4.953142643E0,8.666803360E0
5.440483940E-1,1.296909928E0,4.938786030E0,8.695517540E0
5.461672480E-1,1.277767301E0,4.934000492E0,8.681160927E0
5.482861020E-1,1.263410330E0,4.934000492E0,8.685946465E0
5.504049040E-1,1.234696507E0,4.919643402E0,8.700303078E0
5.525237580E-1,1.201196909E0,4.900500774E0,8.705088615E0
5.546426120E-1,1.177268744E0,4.924428940E0,8.724231720E0
5.567614670E-1,1.138983607E0,4.905286312E0,8.743373871E0
5.588802690E-1,1.134197950E0,4.905286312E0,8.738588333E0
5.609991230E-1,1.119840980E0,4.924428940E0,8.738588333E0
5.631179770E-1,1.081555843E0,4.934000492E0,8.719446182E0
5.652368310E-1,1.071984529E0,4.919643402E0,8.705088615E0
5.673556850E-1,1.076770186E0,4.914857864E0,8.705088615E0
5.694744870E-1,1.067198873E0,4.929214478E0,8.695517540E0
5.715933420E-1,1.062413216E0,4.943571568E0,8.652446747E0
5.737121960E-1,1.076770186E0,4.953142643E0,8.662017822E0
5.758309980E-1,1.076770186E0,4.924428940E0,8.623732567E0
5.779498520E-1,1.086341500E0,4.929214478E0,8.609375954E0
5.800687060E-1,1.076770186E0,4.934000492E0,8.628518105E0
5.821875600E-1,1.067198873E0,4.938786030E0,8.614161491E0
5.843064150E-1,1.071984529E0,4.929214478E0,8.590232849E0
5.864252170E-1,1.062413216E0,4.938786030E0,8.580661774E0
5.885440710E-1,1.067198873E0,4.934000492E0,8.566305161E0
5.906629250E-1,1.057627559E0,4.943571568E0,8.551948547E0
5.927817790E-1,1.071984529E0,4.962714195E0,8.542376518E0
5.949005810E-1,1.071984529E0,4.962714195E0,8.499305725E0
5.970194350E-1,1.048056364E0,4.967499733E0,8.504091263E0
5.991382900E-1,1.052842021E0,4.962714195E0,8.499305725E0
6.012571440E-1,1.048056364E0,4.981856823E0,8.513663292E0
6.033759460E-1,1.052842021E0,5.000999451E0,8.513663292E0
6.054948000E-1,1.052842021E0,4.986642361E0,8.499305725E0
6.076136540E-1,1.048056364E0,5.010570526E0,8.508877754E0
6.097325080E-1,1.043270707E0,5.020142078E0,8.528019905E0
6.118513100E-1,1.052842021E0,5.034498692E0,8.523234367E0
6.139701650E-1,1.052842021E0,5.015356064E0,8.489734650E0
6.160890190E-1,1.052842021E0,5.024927616E0,8.489734650E0
6.182078730E-1,1.048056364E0,5.010570526E0,8.475378036E0
6.203266750E-1,1.067198873E0,4.996213913E0,8.484949112E0
6.224455290E-1,1.081555843E0,4.991427898E0,8.465806961E0
6.245643830E-1,1.086341500E0,4.981856823E0,8.441878319E0
6.266832370E-1,1.095912814E0,4.977071285E0,8.446663857E0
6.288020920E-1,1.095912814E0,4.972285271E0,8.456234932E0
6.309208940E-1,1.095912814E0,4.972285271E0,8.470592499E0
6.330397480E-1,1.115055323E0,4.972285271E0,8.499305725E0
6.351586020E-1,1.110269666E0,4.977071285E0,8.494520187E0
6.372774040E-1,1.124626637E0,4.967499733E0,8.523234367E0
6.393962580E-1,1.134197950E0,4.986642361E0,8.494520187E0
6.415151120E-1,1.124626637E0,4.991427898E0,8.518448830E0
6.436339670E-1,1.148554921E0,5.010570526E0,8.494520187E0
6.457528210E-1,1.177268744E0,5.024927616E0,8.504091263E0
6.478716230E-1,1.186840057E0,5.024927616E0,8.484949112E0
6.499904770E-1,1.225125194E0,5.039284706E0,8.480163574E0
6.521093310E-1,1.258624673E0,5.058426857E0,8.475378036E0
6.542281850E-1,1.287338614E0,5.067998409E0,8.475378036E0
6.563469870E-1,1.330409408E0,5.077569485E0,8.513663292E0
6.584658420E-1,1.368694544E0,5.082355499E0,8.518448830E0
6.605846960E-1,1.406979680E0,5.111069202E0,8.528019905E0
6.627035500E-1,1.426122308E0,5.106283665E0,8.551948547E0
6.648223520E-1,1.454836130E0,5.101497650E0,8.556734085E0
6.669412060E-1,1.450050473E0,5.101497650E0,8.551948547E0
6.690600600E-1,1.378265858E0,5.077569485E0,8.551948547E0
6.711789150E-1,1.397408366E0,5.087141037E0,8.575876236E0
6.732977170E-1,1.421336651E0,5.134997368E0,8.604590416E0
6.754165710E-1,1.430907965E0,5.125426292E0,8.614161491E0
6.775354250E-1,1.426122308E0,5.115854740E0,8.618947029E0
6.796542790E-1,1.411765337E0,5.106283665E0,8.628518105E0
6.817730810E-1,1.392622828E0,5.115854740E0,8.628518105E0
6.838919350E-1,1.363908887E0,5.106283665E0,8.633303642E0
6.860107900E-1,1.335195065E0,5.120640278E0,8.642875671E0
6.881296440E-1,1.320838094E0,5.134997368E0,8.671588898E0
6.902484980E-1,1.296909928E0,5.091926575E0,8.642875671E0
6.923673000E-1,1.272981644E0,4.962714195E0,8.618947029E0
6.944861540E-1,1.239482164E0,4.996213913E0,8.647661209E0
6.966050080E-1,1.258624673E0,5.072783947E0,8.676374435E0
6.987238620E-1,1.306481123E0,5.096712112E0,8.738588333E0
7.008426650E-1,1.502692580E0,4.929214478E0,8.757730484E0
7.029615190E-1,1.536192179E0,4.871787071E0,8.767302513E0
7.050803730E-1,1.459621787E0,4.953142643E0,8.772088051E0
7.071992270E-1,1.354337573E0,5.020142078E0,8.757730484E0
7.093180810E-1,1.292124271E0,5.096712112E0,8.733802795E0
7.114368830E-1,1.229910851E0,5.115854740E0,8.709874153E0
7.135557370E-1,1.162911773E0,5.154139996E0,8.714659691E0
7.156745920E-1,1.115055323E0,5.173282623E0,8.724231720E0
7.177933940E-1,1.043270707E0,5.192425251E0,8.724231720E0
7.199122480E-1,9.762716293E-1,5.182853699E0,8.719446182E0
7.220311020E-1,9.188438654E-1,5.187639713E0,8.714659691E0
7.241499560E-1,8.853443861E-1,5.168497086E0,8.652446747E0
7.262688100E-1,8.709874153E-1,5.149354458E0,8.652446747E0
7.283876120E-1,8.949156404E-1,5.168497086E0,8.604590416E0
7.305064670E-1,9.236295223E-1,5.173282623E0,8.599804878E0
7.326253210E-1,9.379864931E-1,5.178068161E0,8.566305161E0
7.347441750E-1,9.810572863E-1,5.168497086E0,8.547162056E0
7.368629770E-1,1.028913736E0,5.182853699E0,8.504091263E0
7.389818310E-1,1.052842021E0,5.163711071E0,8.499305725E0
7.411006850E-1,1.095912814E0,5.163711071E0,8.446663857E0
7.432195400E-1,1.143769264E0,5.163711071E0,8.408378601E0
7.453383420E-1,1.182054400E0,5.149354458E0,8.384450912E0
7.474571960E-1,1.239482164E0,5.134997368E0,8.365307808E0
7.495760500E-1,1.292124271E0,5.125426292E0,8.350951195E0
7.516949040E-1,1.330409408E0,5.125426292E0,8.288737297E0
7.538137060E-1,1.378265858E0,5.120640278E0,8.264809608E0
7.559325600E-1,1.430907965E0,5.125426292E0,8.221738815E0
7.580514150E-1,1.450050473E0,5.130211830E0,8.178668022E0
7.601702690E-1,1.483550072E0,5.154139996E0,8.149953842E0
7.622890710E-1,1.517049551E0,5.139782906E0,8.130811691E0
7.644079250E-1,1.545763373E0,5.154139996E0,8.097311974E0
7.665267790E-1,1.555334687E0,5.168497086E0,8.082955360E0
7.686456330E-1,1.536192179E0,5.168497086E0,8.068597794E0
7.707644870E-1,1.555334687E0,5.206781864E0,8.049455643E0
7.728832900E-1,1.545763373E0,5.225924492E0,8.011170387E0
7.750021440E-1,1.526620865E0,5.235496044E0,8.015955925E0
7.771209980E-1,1.521835208E0,5.273781300E0,7.987242222E0
7.792398520E-1,1.493121386E0,5.292923450E0,7.972885132E0
7.813586540E-1,1.488335729E0,5.292923450E0,7.982456207E0
7.834775080E-1,1.464407444E0,5.316852093E0,8.015955925E0
7.855963620E-1,1.435693622E0,5.350351334E0,8.030312538E0
7.877152170E-1,1.426122308E0,5.379065514E0,8.039883614E0
7.898340190E-1,1.421336651E0,5.388636589E0,8.039883614E0
7.919528730E-1,1.411765337E0,5.412564754E0,8.068597794E0
7.940717270E-1,1.411765337E0,5.431707382E0,8.106883049E0
7.961905810E-1,1.397408366E0,5.446064472E0,8.154739380E0
7.983094350E-1,1.392622828E0,5.441278458E0,8.178668022E0
8.004282370E-1,1.383051515E0,5.446064472E0,8.212167740E0
8.025470920E-1,1.387837172E0,5.460421085E0,8.216953278E0
8.046659460E-1,1.383051515E0,5.465207100E0,8.236095428E0
8.067847480E-1,1.373480201E0,5.441278458E0,8.260024071E0
8.089036020E-1,1.378265858E0,5.436492920E0,8.274380684E0
8.110224560E-1,1.392622828E0,5.426921844E0,8.312665939E0
8.131413100E-1,1.392622828E0,5.407779217E0,8.346165657E0
8.152601650E-1,1.411765337E0,5.393422127E0,8.379665375E0
8.173789670E-1,1.430907965E0,5.374279499E0,8.403593063E0
8.194978210E-1,1.440479279E0,5.350351334E0,8.441878319E0
8.216166750E-1,1.469193101E0,5.312066078E0,8.437092781E0
8.237355290E-1,1.493121386E0,5.307280540E0,8.470592499E0
8.258543310E-1,1.502692580E0,5.297709465E0,8.480163574E0
8.279731850E-1,1.512263894E0,5.273781300E0,8.484949112E0
8.300920400E-1,1.536192179E0,5.254638672E0,8.494520187E0
8.322108940E-1,1.550549030E0,5.225924492E0,8.494520187E0
8.343297480E-1,1.564906001E0,5.192425251E0,8.528019905E0
8.364485500E-1,1.579262972E0,5.187639713E0,8.523234367E0
8.385674040E-1,1.593619823E0,5.187639713E0,8.537590981E0
8.406862580E-1,1.584048629E0,5.187639713E0,8.561519623E0
8.428050600E-1,1.574477315E0,5.168497086E0,8.575876236E0
8.449239150E-1,1.569691658E0,5.168497086E0,8.595019341E0
8.470427690E-1,1.550549030E0,5.168497086E0,8.609375954E0
8.491616230E-1,1.536192179E0,5.149354458E0,8.618947029E0
8.512804770E-1,1.521835208E0,5.158925533E0,8.604590416E0
8.533992790E-1,1.507478237E0,5.173282623E0,8.604590416E0
8.555181330E-1,1.488335729E0,5.144568920E0,8.595019341E0
8.576369870E-1,1.469193101E0,5.149354458E0,8.590232849E0
8.597558420E-1,1.454836130E0,5.163711071E0,8.551948547E0
8.618746440E-1,1.445264935E0,5.158925533E0,8.518448830E0
8.639934980E-1,1.435693622E0,5.163711071E0,8.480163574E0
8.661123520E-1,1.416550994E0,5.168497086E0,8.446663857E0
8.682312060E-1,1.406979680E0,5.178068161E0,8.384450912E0
8.703500080E-1,1.411765337E0,5.197210789E0,8.346165657E0
8.724688620E-1,1.397408366E0,5.206781864E0,8.283951759E0
8.745877170E-1,1.383051515E0,5.235496044E0,8.260024071E0
8.767065710E-1,1.387837172E0,5.249852657E0,8.207381248E0
8.788254250E-1,1.359123230E0,5.245067120E0,8.159524918E0
8.809442270E-1,1.344766378E0,5.249852657E0,8.106883049E0
8.830630810E-1,1.320838094E0,5.259424210E0,8.078168869E0
8.851819350E-1,1.316052437E0,5.297709465E0,8.030312538E0
8.873007900E-1,1.301695466E0,5.288137913E0,8.020741463E0
8.894195920E-1,1.282552958E0,5.283352375E0,7.987242222E0
8.915384460E-1,1.292124271E0,5.254638672E0,7.987242222E0
8.936573000E-1,1.296909928E0,5.245067120E0,7.982456207E0
8.957761540E-1,1.292124271E0,5.249852657E0,7.972885132E0
8.978950080E-1,1.301695466E0,5.225924492E0,7.977670670E0
9.000138100E-1,1.301695466E0,5.211567879E0,7.968099594E0
9.021326650E-1,1.325623751E0,5.197210789E0,7.953742504E0
9.042515190E-1,1.335195065E0,5.206781864E0,7.982456207E0
9.063703730E-1,1.387837172E0,5.187639713E0,8.001599312E0
9.084891750E-1,1.416550994E0,5.182853699E0,8.030312538E0
9.106080290E-1,1.440479279E0,5.187639713E0,8.030312538E0
9.127268830E-1,1.464407444E0,5.187639713E0,8.063812256E0
9.148457370E-1,1.473978758E0,5.187639713E0,8.059026718E0
9.169645400E-1,1.502692580E0,5.206781864E0,8.082955360E0
9.190833940E-1,1.488335729E0,5.235496044E0,8.102097511E0
9.212022480E-1,1.478764415E0,5.254638672E0,8.111668587E0
9.233211020E-1,1.464407444E0,5.278566837E0,8.116454124E0
9.254399560E-1,1.459621787E0,5.297709465E0,8.140382767E0
9.275587580E-1,1.450050473E0,5.331208706E0,8.135597229E0
9.296776120E-1,1.450050473E0,5.340780258E0,8.106883049E0
9.317964670E-1,1.435693622E0,5.350351334E0,8.092526436E0
9.339153210E-1,1.416550994E0,5.374279499E0,8.078168869E0
9.360341230E-1,1.397408366E0,5.393422127E0,8.059026718E0
9.381529770E-1,1.397408366E0,5.398207664E0,8.044670105E0
9.402718310E-1,1.363908887E0,5.407779217E0,8.054241180E0
9.423906850E-1,1.378265858E0,5.398207664E0,8.015955925E0
9.445094870E-1,1.378265858E0,5.407779217E0,8.006384850E0
9.466283420E-1,1.363908887E0,5.398207664E0,7.992027760E0
9.487471960E-1,1.344766378E0,5.402993679E0,7.977670670E0
9.508660500E-1,1.349551916E0,5.402993679E0,7.958528042E0
9.529849040E-1,1.349551916E0,5.379065514E0,7.939385414E0
9.551037060E-1,1.349551916E0,5.369493961E0,7.925028801E0
9.572225600E-1,1.359123230E0,5.355136871E0,7.901100159E0
9.593414150E-1,1.359123230E0,5.340780258E0,7.886743546E0
9.614602690E-1,1.349551916E0,5.321637630E0,7.881958008E0
9.635790710E-1,1.383051515E0,5.307280540E0,7.867600918E0
9.656979250E-1,1.383051515E0,5.288137913E0,7.853243828E0
9.678167790E-1,1.392622828E0,5.278566837E0,7.862815380E0
9.699356330E-1,1.402194023E0,5.283352375E0,7.877171993E0
9.720544350E-1,1.383051515E0,5.273781300E0,7.891529083E0
9.741732900E-1,1.387837172E0,5.259424210E0,7.877171993E0
9.762921440E-1,1.378265858E0,5.259424210E0,7.886743546E0
9.784109980E-1,1.359123230E0,5.245067120E0,7.891529083E0
9.805298000E-1,1.344766378E0,5.245067120E0,7.886743546E0
9.826486540E-1,1.316052437E0,5.249852657E0,7.877171993E0
9.847675080E-1,1.301695466E0,5.235496044E0,7.886743546E0
9.868863620E-1,1.268195987E0,5.225924492E0,7.896314621E0
9.890052170E-1,1.249053478E0,5.221138954E0,7.896314621E0
9.911240190E-1,1.229910851E0,5.197210789E0,7.877171993E0
9.932428730E-1,1.205982566E0,5.197210789E0,7.853243828E0
9.953617270E-1,1.186840057E0,5.182853699E0,7.838887215E0
9.974805810E-1,1.167697430E0,5.187639713E0,7.800601959E0
9.995993830E-1,1.158126116E0,5.168497086E0,7.795815945E0
1.001718237E0,1.158126116E0,5.178068161E0,7.767102242E0
1.003837092E0,1.153340459E0,5.173282623E0,7.747959614E0
1.005955946E0,1.153340459E0,5.158925533E0,7.738388538E0
1.008074748E0,1.153340459E0,5.158925533E0,7.728816986E0
1.010193602E0,1.186840057E0,5.144568920E0,7.738388538E0
1.012312456E0,1.191625714E0,5.144568920E0,7.747959614E0
1.014431310E0,1.182054400E0,5.130211830E0,7.733603001E0
1.016550112E0,1.186840057E0,5.115854740E0,7.757531166E0
1.018668967E0,1.205982566E0,5.106283665E0,7.752745152E0
1.020787821E0,1.205982566E0,5.087141037E0,7.757531166E0
1.022906675E0,1.229910851E0,5.096712112E0,7.795815945E0
1.025025529E0,1.249053478E0,5.091926575E0,7.800601959E0
1.027144331E0,1.306481123E0,5.106283665E0,7.819744587E0
1.029263185E0,1.330409408E0,5.091926575E0,7.824530125E0
1.031382040E0,1.368694544E0,5.120640278E0,7.872386456E0
1.033500894E0,1.397408366E0,5.130211830E0,7.886743546E0
1.035619696E0,1.440479279E0,5.158925533E0,7.891529083E0
1.037738550E0,1.473978758E0,5.173282623E0,7.905886173E0
1.039857404E0,1.526620865E0,5.187639713E0,7.910671711E0
1.041976258E0,1.579262972E0,5.225924492E0,7.910671711E0
1.044095060E0,1.622333765E0,5.254638672E0,7.915457249E0
1.046213915E0,1.670190215E0,5.273781300E0,7.920242786E0
1.048332769E0,1.689332843E0,5.326423168E0,7.910671711E0
1.050451623E0,1.708475351E0,5.355136871E0,7.896314621E0
1.052570425E0,1.746760488E0,5.388636589E0,7.901100159E0
1.054689279E0,1.746760488E0,5.417350292E0,7.910671711E0
1.056808133E0,1.751546144E0,5.446064472E0,7.891529083E0
1.058926987E0,1.746760488E0,5.484349728E0,7.905886173E0
1.061045842E0,1.751546144E0,5.517848969E0,7.891529083E0
1.063164696E0,1.756331801E0,5.513063431E0,7.867600918E0
1.065283498E0,1.761117458E0,5.546562672E0,7.853243828E0
1.067402352E0,1.770688772E0,5.565705299E0,7.848458290E0
1.069521206E0,1.789831281E0,5.570491314E0,7.843672752E0
1.071640060E0,1.808973908E0,5.565705299E0,7.834101200E0
1.073758862E0,1.808973908E0,5.575276852E0,7.819744587E0
1.075877717E0,1.837687731E0,5.565705299E0,7.810173035E0
1.077996519E0,1.847259045E0,5.560919762E0,7.795815945E0
1.080115425E0,1.866401672E0,5.570491314E0,7.791030407E0
1.082234227E0,1.880758643E0,5.589633465E0,7.814958572E0
1.084353081E0,1.895115495E0,5.560919762E0,7.814958572E0
1.086471935E0,1.919043779E0,5.551348686E0,7.834101200E0
1.088590790E0,1.947757602E0,5.570491314E0,7.843672752E0
1.090709592E0,1.938186288E0,5.560919762E0,7.867600918E0
1.092828446E0,1.962114573E0,5.556134224E0,7.872386456E0
1.094947300E0,1.966900229E0,5.575276852E0,7.877171993E0
1.097066154E0,1.966900229E0,5.556134224E0,7.901100159E0
1.099185008E0,1.976471543E0,5.584847927E0,7.925028801E0
1.101303810E0,1.990828395E0,5.551348686E0,7.948956966E0
1.103422665E0,2.009970903E0,5.556134224E0,7.996813297E0
1.105541519E0,2.029113531E0,5.551348686E0,8.039883614E0
1.107660373E0,2.043470621E0,5.551348686E0,8.102097511E0
1.109779175E0,2.062613010E0,5.532206059E0,8.121239662E0
1.111898029E0,2.072184324E0,5.508277893E0,8.154739380E0
1.114016883E0,2.076970100E0,5.503491879E0,8.188239098E0
1.116135737E0,2.096112728E0,5.513063431E0,8.245666504E0
1.118254592E0,2.086541414E0,5.493920803E0,8.279166222E0
1.120373394E0,2.072184324E0,5.489135265E0,8.312665939E0
1.122492248E0,2.086541414E0,5.469992638E0,8.350951195E0
1.124611102E0,2.076970100E0,5.460421085E0,8.384450912E0
1.126729956E0,2.072184324E0,5.441278458E0,8.403593063E0
1.128848758E0,2.057827473E0,5.412564754E0,8.413164139E0
1.130967612E0,2.043470621E0,5.402993679E0,8.422736168E0
1.133086467E0,2.019542217E0,5.393422127E0,8.461020470E0
1.135205321E0,2.014756680E0,5.369493961E0,8.461020470E0
1.137324175E0,1.981257200E0,5.340780258E0,8.494520187E0
1.139442977E0,1.938186288E0,5.335994720E0,8.508877754E0
1.141561831E0,1.895115495E0,5.316852093E0,8.513663292E0
1.143680685E0,1.866401672E0,5.335994720E0,8.513663292E0
1.145799540E0,1.837687731E0,5.331208706E0,8.556734085E0
1.147918342E0,1.794616938E0,5.335994720E0,8.580661774E0
1.150037196E0,1.765903115E0,5.335994720E0,8.590232849E0
1.152156050E0,1.718046665E0,5.345565796E0,8.604590416E0
1.154274904E0,1.684547186E0,5.364708424E0,8.599804878E0
1.156393706E0,1.660618901E0,5.340780258E0,8.609375954E0
1.158512560E0,1.646261930E0,5.335994720E0,8.590232849E0
1.160631415E0,1.627119422E0,5.307280540E0,8.604590416E0
1.162750269E0,1.617548108E0,5.288137913E0,8.580661774E0
1.164869071E0,1.627119422E0,5.278566837E0,8.566305161E0
1.166987925E0,1.617548108E0,5.268995285E0,8.532805443E0
1.169106779E0,1.641476393E0,5.259424210E0,8.528019905E0
1.171225633E0,1.665404558E0,5.245067120E0,8.504091263E0
1.173344487E0,1.689332843E0,5.235496044E0,8.465806961E0
1.175463290E0,1.708475351E0,5.230710506E0,8.470592499E0
1.177582144E0,1.732403636E0,5.259424210E0,8.456234932E0
1.179700998E0,1.746760488E0,5.259424210E0,8.441878319E0
1.181819852E0,1.804188251E0,5.249852657E0,8.446663857E0
1.183938706E0,1.832902193E0,5.264209747E0,8.432307243E0
1.186057508E0,1.875972986E0,5.273781300E0,8.417949677E0
1.188176362E0,1.904686809E0,5.264209747E0,8.403593063E0
1.190295217E0,1.933400750E0,5.278566837E0,8.394021988E0
1.192414071E0,1.981257200E0,5.292923450E0,8.413164139E0
1.194532873E0,2.005185366E0,5.297709465E0,8.394021988E0
1.196651727E0,2.053041935E0,5.302495003E0,8.408378601E0
1.198770581E0,2.081755638E0,5.316852093E0,8.389236450E0
1.200889435E0,2.081755638E0,5.321637630E0,8.389236450E0
1.203008290E0,2.086541414E0,5.345565796E0,8.365307808E0
1.205127092E0,2.100898266E0,5.335994720E0,8.341380119E0
1.207245946E0,2.105684042E0,5.321637630E0,8.341380119E0
1.209364800E0,2.115255117E0,5.321637630E0,8.293522835E0
1.211483654E0,2.105684042E0,5.316852093E0,8.264809608E0
1.213602456E0,2.096112728E0,5.321637630E0,8.226524353E0
1.215721310E0,2.086541414E0,5.312066078E0,8.193024635E0
1.217840165E0,2.076970100E0,5.292923450E0,8.159524918E0
1.219959019E0,2.067398787E0,5.297709465E0,8.121239662E0
1.222077821E0,2.043470621E0,5.302495003E0,8.087740898E0
1.224196675E0,2.014756680E0,5.297709465E0,8.030312538E0
1.226315529E0,2.000399828E0,5.268995285E0,8.001599312E0
1.228434383E0,1.976471543E0,5.264209747E0,7.958528042E0
1.230553237E0,1.952543259E0,5.254638672E0,7.925028801E0
1.232672040E0,1.923829436E0,5.240281582E0,7.862815380E0
1.234790894E0,1.885544300E0,5.230710506E0,7.843672752E0
1.236909748E0,1.847259045E0,5.235496044E0,7.824530125E0
1.239028602E0,1.823330879E0,5.225924492E0,7.776673794E0
1.241147404E0,1.794616938E0,5.230710506E0,7.738388538E0
1.243266258E0,1.761117458E0,5.235496044E0,7.700103283E0
1.245385112E0,1.722832322E0,5.254638672E0,7.666603565E0
1.247503967E0,1.698904037E0,5.264209747E0,7.652246952E0
1.249622821E0,1.679761529E0,5.254638672E0,7.618747234E0
1.251741623E0,1.651047587E0,5.249852657E0,7.628318787E0
1.253860477E0,1.622333765E0,5.268995285E0,7.590033531E0
1.255979331E0,1.607976794E0,5.278566837E0,7.585247993E0
1.258098185E0,1.598405480E0,5.278566837E0,7.585247993E0
1.260216987E0,1.593619823E0,5.283352375E0,7.618747234E0
1.262335842E0,1.588834286E0,5.292923450E0,7.623532772E0
1.264454696E0,1.593619823E0,5.292923450E0,7.657032490E0
1.266573550E0,1.588834286E0,5.288137913E0,7.661818027E0
1.268692404E0,1.603191137E0,5.278566837E0,7.671389580E0
1.270811206E0,1.612762451E0,5.288137913E0,7.704888821E0
1.272930060E0,1.631905079E0,5.273781300E0,7.724031448E0
1.275048915E0,1.651047587E0,5.259424210E0,7.738388538E0
1.277167769E0,1.670190215E0,5.240281582E0,7.776673794E0
1.279286571E0,1.698904037E0,5.235496044E0,7.791030407E0
1.281405425E0,1.708475351E0,5.211567879E0,7.805387497E0
1.283524279E0,1.737189293E0,5.187639713E0,7.824530125E0
1.285643133E0,1.727617979E0,5.187639713E0,7.838887215E0
1.287761987E0,1.746760488E0,5.158925533E0,7.862815380E0
1.289880790E0,1.737189293E0,5.154139996E0,7.858029366E0
1.291999644E0,1.737189293E0,5.144568920E0,7.891529083E0
1.294118498E0,1.737189293E0,5.120640278E0,7.905886173E0
1.296237352E0,1.727617979E0,5.096712112E0,7.896314621E0
1.298356154E0,1.708475351E0,5.096712112E0,7.925028801E0
1.300475008E0,1.694118381E0,5.082355499E0,7.929814339E0
1.302593862E0,1.674975872E0,5.077569485E0,7.939385414E0
1.304712717E0,1.651047587E0,5.087141037E0,7.968099594E0
1.306831519E0,1.641476393E0,5.072783947E0,7.982456207E0
1.308950373E0,1.631905079E0,5.077569485E0,8.006384850E0
1.311069227E0,1.631905079E0,5.077569485E0,8.006384850E0
1.313188081E0,1.622333765E0,5.072783947E0,8.039883614E0
1.315306935E0,1.612762451E0,5.072783947E0,8.059026718E0
1.317425737E0,1.593619823E0,5.072783947E0,8.063812256E0
1.319544592E0,1.593619823E0,5.067998409E0,8.082955360E0
1.321663446E0,1.598405480E0,5.091926575E0,8.092526436E0
1.323782300E0,1.588834286E0,5.077569485E0,8.092526436E0
1.325901154E0,1.579262972E0,5.087141037E0,8.106883049E0
1.328019956E0,1.574477315E0,5.096712112E0,8.082955360E0
1.330138810E0,1.584048629E0,5.106283665E0,8.068597794E0
1.332257665E0,1.569691658E0,5.134997368E0,8.082955360E0
1.334376519E0,1.569691658E0,5.144568920E0,8.049455643E0
1.336495373E0,1.569691658E0,5.173282623E0,8.044670105E0
1.338614175E0,1.560120344E0,5.206781864E0,8.049455643E0
1.340733029E0,1.569691658E0,5.216353416E0,8.011170387E0
1.342851883E0,1.569691658E0,5.235496044E0,7.996813297E0
1.344970737E0,1.560120344E0,5.259424210E0,8.006384850E0
1.347089540E0,1.574477315E0,5.278566837E0,8.001599312E0
1.349208394E0,1.579262972E0,5.283352375E0,8.001599312E0
1.351327248E0,1.588834286E0,5.292923450E0,8.015955925E0
1.353446102E0,1.612762451E0,5.297709465E0,8.025527000E0
1.355564904E0,1.607976794E0,5.312066078E0,8.044670105E0
1.357683758E0,1.622333765E0,5.321637630E0,8.068597794E0
1.359802612E0,1.622333765E0,5.326423168E0,8.082955360E0
1.361921467E0,1.622333765E0,5.321637630E0,8.111668587E0
1.364040321E0,1.627119422E0,5.316852093E0,8.130811691E0
1.366159123E0,1.622333765E0,5.302495003E0,8.169096947E0
1.368277977E0,1.612762451E0,5.312066078E0,8.197810173E0
1.370396831E0,1.622333765E0,5.312066078E0,8.188239098E0
1.372515685E0,1.627119422E0,5.307280540E0,8.193024635E0
1.374634487E0,1.617548108E0,5.283352375E0,8.188239098E0
1.376753342E0,1.636690736E0,5.292923450E0,8.188239098E0
1.378872196E0,1.641476393E0,5.268995285E0,8.202595711E0
1.380991050E0,1.627119422E0,5.268995285E0,8.178668022E0
1.383109852E0,1.636690736E0,5.273781300E0,8.188239098E0
1.385228706E0,1.627119422E0,5.245067120E0,8.212167740E0
1.387347560E0,1.622333765E0,5.235496044E0,8.202595711E0
1.389466415E0,1.617548108E0,5.216353416E0,8.216953278E0
1.391585269E0,1.617548108E0,5.182853699E0,8.202595711E0
1.393704071E0,1.612762451E0,5.173282623E0,8.216953278E0
1.395822925E0,1.593619823E0,5.149354458E0,8.207381248E0
1.397941779E0,1.593619823E0,5.111069202E0,8.231309891E0
1.400060633E0,1.564906001E0,5.130211830E0,8.236095428E0
1.402179487E0,1.536192179E0,5.125426292E0,8.216953278E0
1.404298290E0,1.488335729E0,5.125426292E0,8.236095428E0
1.406417144E0,1.454836130E0,5.115854740E0,8.250452042E0
1.408535998E0,1.421336651E0,5.115854740E0,8.236095428E0
1.410654852E0,1.392622828E0,5.115854740E0,8.269595146E0
1.412773654E0,1.373480201E0,5.120640278E0,8.288737297E0
1.414892508E0,1.344766378E0,5.130211830E0,8.298309326E0
1.417011362E0,1.344766378E0,5.130211830E0,8.298309326E0
1.419130217E0,1.339980721E0,5.125426292E0,8.312665939E0
1.421249071E0,1.349551916E0,5.139782906E0,8.312665939E0
1.423367873E0,1.354337573E0,5.144568920E0,8.346165657E0
1.425486727E0,1.368694544E0,5.163711071E0,8.355736732E0
1.427605581E0,1.373480201E0,5.192425251E0,8.365307808E0
1.429724435E0,1.397408366E0,5.182853699E0,8.384450912E0
1.431843290E0,1.416550994E0,5.182853699E0,8.379665375E0
1.433962092E0,1.440479279E0,5.173282623E0,8.394021988E0
1.436080946E0,1.450050473E0,5.163711071E0,8.365307808E0
1.438199800E0,1.473978758E0,5.173282623E0,8.374878883E0
1.440318602E0,1.478764415E0,5.158925533E0,8.365307808E0
1.442437456E0,1.488335729E0,5.149354458E0,8.370093346E0
1.444556310E0,1.512263894E0,5.149354458E0,8.360522270E0
1.446675165E0,1.526620865E0,5.149354458E0,8.379665375E0
1.448794019E0,1.526620865E0,5.149354458E0,8.384450912E0
1.450912873E0,1.545763373E0,5.134997368E0,8.403593063E0
1.453031675E0,1.560120344E0,5.158925533E0,8.437092781E0
1.455150529E0,1.588834286E0,5.154139996E0,8.470592499E0
1.457269383E0,1.612762451E0,5.158925533E0,8.508877754E0
1.459388237E0,1.641476393E0,5.163711071E0,8.537590981E0
1.461507040E0,1.674975872E0,5.187639713E0,8.561519623E0
1.463625894E0,1.737189293E0,5.197210789E0,8.556734085E0
1.465744748E0,1.780260086E0,5.211567879E0,8.537590981E0
1.467863602E0,1.828116536E0,5.221138954E0,8.542376518E0
1.469982456E0,1.875972986E0,5.240281582E0,8.508877754E0
1.472101258E0,1.919043779E0,5.240281582E0,8.465806961E0
1.474220112E0,1.923829436E0,5.235496044E0,8.427521706E0
1.476338967E0,1.923829436E0,5.249852657E0,8.422736168E0
1.478457821E0,1.919043779E0,5.235496044E0,8.365307808E0
1.480576623E0,1.899901152E0,5.268995285E0,8.365307808E0
1.482695477E0,1.904686809E0,5.288137913E0,8.327022552E0
1.484814331E0,1.880758643E0,5.292923450E0,8.288737297E0
1.486933185E0,1.856830359E0,5.316852093E0,8.264809608E0
1.489052040E0,1.847259045E0,5.316852093E0,8.216953278E0
1.491170842E0,1.813759565E0,5.340780258E0,8.193024635E0
1.493289696E0,1.765903115E0,5.355136871E0,8.183453560E0
1.495408550E0,1.751546144E0,5.398207664E0,8.135597229E0
1.497527404E0,1.732403636E0,5.407779217E0,8.121239662E0
1.499646206E0,1.708475351E0,5.446064472E0,8.106883049E0
1.501765060E0,1.732403636E0,5.474778175E0,8.063812256E0
1.503883915E0,1.746760488E0,5.508277893E0,8.073383331E0
1.506002769E0,1.765903115E0,5.551348686E0,8.054241180E0
1.508121571E0,1.785045743E0,5.560919762E0,8.054241180E0
1.510240425E0,1.823330879E0,5.594419479E0,8.063812256E0
1.512359279E0,1.847259045E0,5.623133183E0,8.068597794E0
1.514478133E0,1.866401672E0,5.642275810E0,8.059026718E0
1.516596987E0,1.871187329E0,5.651846886E0,8.054241180E0
1.518715790E0,1.880758643E0,5.670989513E0,8.049455643E0
1.520834644E0,1.885544300E0,5.661418438E0,8.020741463E0
1.522953498E0,1.909472466E0,5.675775528E0,8.015955925E0
1.525072352E0,1.885544300E0,5.661418438E0,8.025527000E0
1.527191154E0,1.856830359E0,5.603990555E0,8.020741463E0
1.529310008E0,1.799402595E0,5.551348686E0,7.987242222E0
1.531428862E0,1.746760488E0,5.551348686E0,7.996813297E0
1.533547717E0,1.450050473E0,5.058426857E0,7.824530125E0
1.535666519E0,1.378265858E0,5.230710506E0,7.762316704E0
1.537785373E0,1.502692580E0,5.412564754E0,7.886743546E0
1.539904227E0,1.598405480E0,5.469992638E0,7.944170952E0
1.542023081E0,1.617548108E0,5.522634506E0,7.901100159E0
1.544141935E0,1.660618901E0,5.570491314E0,7.886743546E0
1.546260790E0,1.694118381E0,5.647061348E0,7.896314621E0
1.548379592E0,1.732403636E0,5.714060307E0,7.948956966E0
1.550498446E0,1.741974831E0,5.757131100E0,7.972885132E0
1.552617300E0,1.741974831E0,5.781059742E0,8.015955925E0
1.554736154E0,1.765903115E0,5.804987907E0,8.059026718E0
1.556854956E0,1.761117458E0,5.809773445E0,8.087740898E0
1.558973810E0,1.775474429E0,5.814558983E0,8.087740898E0
1.561092665E0,1.799402595E0,5.809773445E0,8.087740898E0
1.563211519E0,1.832902193E0,5.828916073E0,8.116454124E0
1.565330321E0,1.880758643E0,5.838487148E0,8.106883049E0
1.567449175E0,1.914258122E0,5.843272686E0,8.126026154E0
1.569568029E0,1.986042738E0,5.867201328E0,8.126026154E0
1.571686883E0,2.000399828E0,5.900700569E0,8.145168304E0
1.573805737E0,2.076970100E0,5.900700569E0,8.164310455E0
1.575924540E0,2.191825628E0,5.814558983E0,8.188239098E0
1.578043394E0,2.177468538E0,5.876772404E0,8.188239098E0
1.580162248E0,2.158325911E0,5.934200287E0,8.188239098E0
1.582281102E0,2.163111687E0,5.948556900E0,8.173882484E0
1.584399956E0,2.148754835E0,5.934200287E0,8.154739380E0
1.586518758E0,2.096112728E0,5.929414749E0,8.102097511E0
1.588637612E0,2.048256159E0,5.915057659E0,8.039883614E0
1.590756467E0,1.962114573E0,5.900700569E0,8.015955925E0
1.592875321E0,1.866401672E0,5.848058701E0,7.896314621E0
1.594994123E0,1.890329838E0,5.828916073E0,7.838887215E0
1.597112977E0,1.981257200E0,5.747560024E0,7.771887779E0
1.599231831E0,2.033899307E0,5.742774487E0,7.743174076E0
1.601350685E0,2.057827473E0,5.795416355E0,7.724031448E0
1.603469540E0,2.072184324E0,5.848058701E0,7.690532207E0
1.605588342E0,2.100898266E0,5.886343479E0,7.566105366E0
1.607707196E0,2.340180635E0,5.618347645E0,7.240681171E0
1.609826050E0,2.699103832E0,5.015356064E0,6.063412666E0
1.611944904E0,2.766103029E0,5.130211830E0,6.101697922E0
1.614063758E0,2.799602509E0,5.345565796E0,6.403193474E0
1.616182612E0,2.847458839E0,5.608776093E0,6.920042992E0
1.618301415E0,2.876172781E0,5.862415314E0,7.441678524E0
1.620420269E0,2.813959360E0,6.063412666E0,7.757531166E0
1.622539123E0,2.718246460E0,6.173482418E0,7.810173035E0
1.624657925E0,2.598605394E0,6.187839508E0,7.690532207E0
1.626776779E0,2.488535643E0,6.202196121E0,7.542177200E0
1.628895633E0,2.359323025E0,6.269195557E0,7.460821152E0
1.631014487E0,2.225325108E0,6.340980053E0,7.475177765E0
1.633133342E0,2.100898266E0,6.384050846E0,7.532605648E0
1.635252144E0,1.995614052E0,6.446264267E0,7.676175117E0
1.637370998E0,1.919043779E0,6.470192432E0,7.767102242E0
1.639489852E0,1.837687731E0,6.474977970E0,7.829315662E0
1.641608706E0,1.765903115E0,6.460621357E0,7.858029366E0
1.643727560E0,1.684547186E0,6.422336102E0,7.867600918E0
1.645846362E0,1.416550994E0,6.264409542E0,7.824530125E0
1.647965217E0,7.704889178E-1,5.905486107E0,7.633104324E0
1.650084071E0,8.614161611E-1,5.857629776E0,7.585247993E0
1.652202925E0,1.043270707E0,5.627918720E0,7.465606689E0
1.654321727E0,1.182054400E0,5.455635548E0,7.331608772E0
1.656440581E0,1.325623751E0,5.417350292E0,7.231110096E0
1.658559435E0,1.454836130E0,5.426921844E0,7.211967468E0
1.660678290E0,1.627119422E0,5.498706341E0,7.226324558E0
1.662797092E0,1.775474429E0,5.570491314E0,7.278966427E0
1.664915946E0,1.899901152E0,5.647061348E0,7.365108013E0
1.667034800E0,2.005185366E0,5.752345562E0,7.432106972E0
1.669153654E0,2.129612207E0,5.838487148E0,7.570890903E0
1.671272508E0,2.215753794E0,5.934200287E0,7.743174076E0
1.673391310E0,2.273181438E0,6.053841114E0,7.929814339E0
1.675510165E0,2.301895380E0,6.149554253E0,8.087740898E0
1.677629019E0,2.306680918E0,6.206982136E0,8.216953278E0
1.679747873E0,2.321038008E0,6.259624004E0,8.365307808E0
1.681866675E0,2.354537487E0,6.297909260E0,8.537590981E0
1.683985529E0,2.359323025E0,6.297909260E0,8.690732002E0
1.686104331E0,2.354537487E0,6.283552170E0,8.786444664E0
1.688223237E0,2.359323025E0,6.250052929E0,8.877371788E0
1.690342092E0,2.344966173E0,6.192625046E0,8.939585686E0
1.692460894E0,2.325823545E0,6.144768715E0,8.963513374E0
1.694579748E0,2.268395901E0,6.087340832E0,8.982656479E0
1.696698602E0,2.210968018E0,6.010770321E0,8.920442581E0
1.698817456E0,2.120040894E0,5.938985825E0,8.815158844E0
1.700936310E0,2.072184324E0,5.876772404E0,8.714659691E0
1.703055112E0,2.033899307E0,5.824130535E0,8.657232285E0
1.705173967E0,2.009970903E0,5.785845280E0,8.580661774E0
1.707292821E0,1.990828395E0,5.766702652E0,8.494520187E0
1.709411675E0,1.986042738E0,5.728417397E0,8.427521706E0
1.711530529E0,1.976471543E0,5.737988472E0,8.350951195E0
1.713649331E0,1.986042738E0,5.737988472E0,8.288737297E0
1.715768185E0,2.005185366E0,5.761917114E0,8.260024071E0
1.717887040E0,2.062613010E0,5.800201893E0,8.236095428E0
1.720005894E0,2.124826431E0,5.800201893E0,8.216953278E0
1.722124696E0,2.201396942E0,5.833701611E0,8.231309891E0
1.724243550E0,2.268395901E0,5.867201328E0,8.231309891E0
1.726362404E0,2.330609322E0,5.867201328E0,8.260024071E0
1.728481258E0,2.392822742E0,5.881557941E0,8.283951759E0
1.730600060E0,2.421536446E0,5.876772404E0,8.293522835E0
1.732718915E0,2.469393015E0,5.857629776E0,8.312665939E0
1.734837769E0,2.541177750E0,5.848058701E0,8.360522270E0
1.736956623E0,2.569891453E0,5.828916073E0,8.398807526E0
1.739075321E0,2.574677229E0,5.795416355E0,8.389236450E0
1.741194279E0,2.569891453E0,5.752345562E0,8.398807526E0
1.743313133E0,2.584248543E0,5.714060307E0,8.422736168E0
1.745431987E0,2.593819857E0,5.685346603E0,8.413164139E0
1.747550842E0,2.603390932E0,5.651846886E0,8.413164139E0
1.749669696E0,2.593819857E0,5.613562107E0,8.403593063E0
1.751788498E0,2.584248543E0,5.575276852E0,8.370093346E0
1.753907352E0,2.526820660E0,5.565705299E0,8.264809608E0
1.756026206E0,2.474178553E0,5.551348686E0,8.154739380E0
1.758145060E0,2.383251429E0,5.517848969E0,7.992027760E0
1.760263862E0,2.273181438E0,5.527420521E0,7.829315662E0
1.762382717E0,2.249253273E0,5.551348686E0,7.709674358E0
1.764501571E0,2.230110645E0,5.575276852E0,7.580461979E0
1.766620425E0,2.244467735E0,5.618347645E0,7.465606689E0
1.768739279E0,2.258824587E0,5.666203976E0,7.379465103E0
1.770858081E0,2.297109842E0,5.714060307E0,7.293323517E0
1.772976935E0,2.335394859E0,5.785845280E0,7.274180889E0
1.775095790E0,2.321038008E0,5.862415314E0,7.274180889E0
1.777214644E0,2.321038008E0,5.934200287E0,7.264609337E0
1.779333498E0,2.344966173E0,6.001199245E0,7.302894592E0
1.781452300E0,2.364108801E0,6.072983742E0,7.369893551E0
1.783571154E0,2.411965132E0,6.139982700E0,7.432106972E0
1.785690008E0,2.416750908E0,6.154339790E0,7.494320393E0
1.787808862E0,2.450250387E0,6.211767673E0,7.527820110E0
1.789927665E0,2.512463808E0,6.226124287E0,7.599604607E0
1.792046519E0,2.541177750E0,6.221338749E0,7.618747234E0
1.794165373E0,2.565105915E0,6.187839508E0,7.657032490E0
1.796284227E0,2.617748022E0,6.197410583E0,7.714460373E0
1.798403029E0,2.665604353E0,6.183053493E0,7.757531166E0
1.800521883E0,2.684746981E0,6.154339790E0,7.795815945E0
1.802640737E0,2.670390129E0,6.125626087E0,7.795815945E0
1.804759592E0,2.670390129E0,6.116054535E0,7.810173035E0
1.806878446E0,2.641676188E0,6.096911907E0,7.848458290E0
1.808997300E0,2.612962246E0,6.101697922E0,7.877171993E0
1.811116102E0,2.593819857E0,6.053841114E0,7.901100159E0
1.813234956E0,2.560320139E0,6.039484501E0,7.920242786E0
1.815353810E0,2.550748825E0,6.020341873E0,7.939385414E0
1.817472665E0,2.517249346E0,5.982056618E0,7.996813297E0
1.819591467E0,2.478964329E0,5.953342915E0,8.015955925E0
1.821710321E0,2.469393015E0,5.915057659E0,8.006384850E0
1.823829175E0,2.464607239E0,5.867201328E0,8.001599312E0
1.825948029E0,2.464607239E0,5.809773445E0,7.968099594E0
1.828066831E0,2.455035925E0,5.776273727E0,7.925028801E0
1.830185685E0,2.455035925E0,5.757131100E0,7.886743546E0
1.832304540E0,2.455035925E0,5.742774487E0,7.862815380E0
1.834423394E0,2.440679073E0,5.733202934E0,7.848458290E0
1.836542248E0,2.426322222E0,5.747560024E0,7.810173035E0
1.838661102E0,2.426322222E0,5.766702652E0,7.771887779E0
1.840779904E0,2.455035925E0,5.790630817E0,7.728816986E0
1.842898758E0,2.483749866E0,5.809773445E0,7.685746193E0
1.845017612E0,2.517249346E0,5.843272686E0,7.690532207E0
1.847136467E0,2.560320139E0,5.900700569E0,7.733603001E0
1.849255269E0,2.550748825E0,5.934200287E0,7.690532207E0
1.851374123E0,2.545963287E0,5.991627693E0,7.618747234E0
1.853492977E0,2.502892494E0,6.029912949E0,7.590033531E0
1.855611831E0,2.502892494E0,6.077769279E0,7.513463020E0
1.857730685E0,2.478964329E0,6.120840549E0,7.460821152E0
1.859849487E0,2.474178553E0,6.197410583E0,7.446464062E0
1.861968342E0,2.478964329E0,6.226124287E0,7.417750359E0
1.864087196E0,2.507678032E0,6.264409542E0,7.384250641E0
1.866206050E0,2.560320139E0,6.297909260E0,7.398607731E0
1.868324852E0,2.589034081E0,6.321837425E0,7.398607731E0
1.870443706E0,2.612962246E0,6.345765591E0,7.360322475E0
1.872562560E0,2.641676188E0,6.350551128E0,7.331608772E0
1.874681415E0,2.665604353E0,6.345765591E0,7.298109055E0
1.876800217E0,2.679961443E0,6.317051888E0,7.274180889E0
1.878919071E0,2.713460922E0,6.297909260E0,7.259823799E0
1.881037925E0,2.737389088E0,6.264409542E0,7.231110096E0
1.883156779E0,2.761317253E0,6.235695839E0,7.221538544E0
1.885275633E0,2.804388046E0,6.206982136E0,7.226324558E0
1.887394487E0,2.794816732E0,6.187839508E0,7.211967468E0
1.889513290E0,2.809173822E0,6.159125328E0,7.211967468E0
1.891632144E0,2.785245657E0,6.125626087E0,7.202396393E0
1.893750998E0,2.775674343E0,6.106483459E0,7.240681171E0
1.895869852E0,2.794816732E0,6.077769279E0,7.278966427E0
1.897988654E0,2.780459881E0,6.068198204E0,7.331608772E0
1.900107508E0,2.785245657E0,6.058627129E0,7.374679565E0
1.902226362E0,2.770888567E0,6.044270039E0,7.369893551E0
1.904345217E0,2.751745939E0,6.020341873E0,7.369893551E0
1.906464019E0,2.723032236E0,6.001199245E0,7.341179848E0
1.908582873E0,2.699103832E0,6.020341873E0,7.312466145E0
1.910701727E0,2.684746981E0,6.015556335E0,7.293323517E0
1.912820581E0,2.660818815E0,6.039484501E0,7.255038261E0
1.914939435E0,2.656033039E0,6.063412666E0,7.245467186E0
1.917058237E0,2.627319336E0,6.125626087E0,7.197610378E0
1.919177092E0,2.622533560E0,6.159125328E0,7.168896675E0
1.921295946E0,2.612962246E0,6.226124287E0,7.111468792E0
1.923414800E0,2.675175667E0,6.331408501E0,7.054041386E0
1.925533654E0,2.598605394E0,6.384050846E0,6.910471916E0
1.927652456E0,2.507678032E0,6.441478729E0,6.900900364E0
1.929771310E0,2.469393015E0,6.498906136E0,6.896114826E0
1.931890165E0,2.450250387E0,6.532405853E0,6.867401123E0
1.934009019E0,2.498106956E0,6.532405853E0,6.848258495E0
1.936127873E0,2.531606436E0,6.522834301E0,6.838686943E0
1.938246675E0,2.656033039E0,6.503692150E0,6.795616150E0
1.940365529E0,2.775674343E0,6.498906136E0,6.742974281E0
1.942484331E0,2.904886723E0,6.474977970E0,6.680760860E0
1.944603237E0,3.029313564E0,6.451049805E0,6.623332977E0
1.946722040E0,3.125026464E0,6.446264267E0,6.570691109E0
1.948840894E0,3.153740168E0,6.417550564E0,6.522834301E0
1.950959748E0,3.187239647E0,6.393621922E0,6.451049805E0
1.953078602E0,3.158525944E0,6.369693756E0,6.412764549E0
1.955197456E0,3.139383316E0,6.336194515E0,6.355337143E0
1.957316258E0,3.148954630E0,6.321837425E0,6.355337143E0
1.959435112E0,3.144168854E0,6.297909260E0,6.312266350E0
1.961553967E0,3.148954630E0,6.269195557E0,6.331408501E0
1.963672821E0,3.163311481E0,6.259624004E0,6.364908218E0
1.965791623E0,3.158525944E0,6.245266914E0,6.417550564E0
1.967910477E0,3.153740168E0,6.211767673E0,6.508477688E0
1.970029331E0,3.168097258E0,6.183053493E0,6.623332977E0
1.972148185E0,3.215953588E0,6.159125328E0,6.781259537E0
1.974267040E0,3.220739365E0,6.125626087E0,6.953542709E0
1.976385894E0,3.215953588E0,6.082555294E0,7.106683254E0
1.978504696E0,3.211168051E0,6.020341873E0,7.278966427E0
1.980623550E0,3.182454109E0,5.977271080E0,7.446464062E0
1.982742404E0,3.163311481E0,5.895915031E0,7.590033531E0
1.984861258E0,3.168097258E0,5.819344521E0,7.762316704E0
1.986980060E0,3.168097258E0,5.718846321E0,7.939385414E0
1.989098915E0,3.172882795E0,5.661418438E0,8.068597794E0
1.991217769E0,3.144168854E0,5.594419479E0,8.260024071E0
1.993336623E0,3.058027267E0,5.522634506E0,8.422736168E0
1.995455477E0,2.909672260E0,5.465207100E0,8.532805443E0
1.997574279E0,2.746960402E0,5.436492920E0,8.614161491E0
1.999693133E0,2.651247501E0,5.436492920E0,8.719446182E0
2.001811987E0,2.565105915E0,5.422136307E0,8.796015739E0
2.003930790E0,2.440679073E0,5.402993679E0,8.800801277E0
2.006049696E0,2.378465652E0,5.417350292E0,8.839086533E0
2.008168550E0,2.292324066E0,5.450850010E0,8.858229637E0
2.010287352E0,2.215753794E0,5.469992638E0,8.843872070E0
2.012406206E0,2.124826431E0,5.503491879E0,8.791230202E0
2.014525060E0,2.081755638E0,5.527420521E0,8.714659691E0
2.016643862E0,2.019542217E0,5.556134224E0,8.633303642E0
2.018762717E0,1.981257200E0,5.589633465E0,8.484949112E0
2.020881571E0,1.995614052E0,5.632704735E0,8.365307808E0
2.023000425E0,2.024327993E0,5.647061348E0,8.193024635E0
2.025119279E0,2.081755638E0,5.699703693E0,8.030312538E0
2.027238081E0,2.096112728E0,5.747560024E0,7.843672752E0
2.029356935E0,2.120040894E0,5.790630817E0,7.685746193E0
2.031475790E0,2.182254314E0,5.862415314E0,7.470392227E0
2.033594644E0,2.201396942E0,5.934200287E0,7.288537979E0
2.035713498E0,2.254039049E0,6.001199245E0,7.144968510E0
2.037832300E0,2.311466694E0,6.068198204E0,7.015756130E0
2.039951154E0,2.383251429E0,6.125626087E0,6.905686378E0
2.042070008E0,2.435893536E0,6.159125328E0,6.809973240E0
2.044188862E0,2.507678032E0,6.173482418E0,6.738188744E0
2.046307717E0,2.569891453E0,6.187839508E0,6.671189308E0
2.048426519E0,2.646461725E0,6.178267956E0,6.604190350E0
2.050545373E0,2.737389088E0,6.173482418E0,6.541976929E0
2.052664227E0,2.813959360E0,6.154339790E0,6.489335060E0
2.054783081E0,2.895315409E0,6.139982700E0,6.417550564E0
2.056901883E0,2.947957516E0,6.116054535E0,6.374479294E0
2.059020737E0,2.976671457E0,6.096911907E0,6.326622963E0
2.061139592E0,2.981456995E0,6.077769279E0,6.297909260E0
2.063258446E0,2.981456995E0,6.063412666E0,6.278766632E0
2.065377300E0,2.947957516E0,6.044270039E0,6.288337708E0
2.067496102E0,2.914458036E0,6.010770321E0,6.288337708E0
2.069614956E0,2.852244616E0,5.977271080E0,6.259624004E0
2.071733810E0,2.818745136E0,5.953342915E0,6.278766632E0
2.073852665E0,2.785245657E0,5.948556900E0,6.317051888E0
2.075971519E0,2.723032236E0,5.934200287E0,6.336194515E0
2.078090321E0,2.703889608E0,5.915057659E0,6.417550564E0
2.080209175E0,2.675175667E0,5.895915031E0,6.470192432E0
2.082328029E0,2.593819857E0,5.895915031E0,6.527620316E0
2.084446883E0,2.569891453E0,5.891129494E0,6.599404812E0
2.086565737E0,2.536391973E0,5.905486107E0,6.685546398E0
2.088684540E0,2.483749866E0,5.895915031E0,6.771687984E0
2.090803394E0,2.440679073E0,5.871986866E0,6.824330330E0
2.092922248E0,2.378465652E0,5.871986866E0,6.876972198E0
2.095041102E0,2.340180635E0,5.862415314E0,6.943971157E0
2.097159956E0,2.325823545E0,5.862415314E0,7.049255371E0
2.099278758E0,2.301895380E0,5.867201328E0,7.106683254E0
2.101397612E0,2.301895380E0,5.848058701E0,7.130611420E0
2.103516467E0,2.287538528E0,5.843272686E0,7.164111137E0
2.105635321E0,2.335394859E0,5.843272686E0,7.164111137E0
2.107754123E0,2.335394859E0,5.838487148E0,7.173682213E0
2.109872977E0,2.344966173E0,5.838487148E0,7.130611420E0
2.111991831E0,2.359323025E0,5.838487148E0,7.116254330E0
2.114110685E0,2.397608280E0,5.843272686E0,7.144968510E0
2.116229540E0,2.435893536E0,5.828916073E0,7.159325123E0
2.118348342E0,2.445464849E0,5.824130535E0,7.183253765E0
2.120467196E0,2.464607239E0,5.838487148E0,7.202396393E0
2.122586050E0,2.483749866E0,5.828916073E0,7.240681171E0
2.124704904E0,2.469393015E0,5.819344521E0,7.269395351E0
2.126823758E0,2.488535643E0,5.819344521E0,7.312466145E0
2.128942560E0,2.526820660E0,5.804987907E0,7.341179848E0
2.131061415E0,2.526820660E0,5.790630817E0,7.369893551E0
2.133180269E0,2.545963287E0,5.752345562E0,7.374679565E0
2.135299123E0,2.550748825E0,5.718846321E0,7.417750359E0
2.137417925E0,2.569891453E0,5.666203976E0,7.436892986E0
2.139536779E0,2.565105915E0,5.642275810E0,7.456035137E0
2.141655633E0,2.550748825E0,5.603990555E0,7.494320393E0
2.143774435E0,2.531606436E0,5.546562672E0,7.508677483E0
2.145893342E0,2.512463808E0,5.532206059E0,7.489534855E0
2.148012144E0,2.478964329E0,5.498706341E0,7.508677483E0
2.150130998E0,2.450250387E0,5.469992638E0,7.465606689E0
2.152249852E0,2.402393818E0,5.474778175E0,7.451249599E0
2.154368706E0,2.340180635E0,5.474778175E0,7.432106972E0
2.156487560E0,2.306680918E0,5.479563713E0,7.403393269E0
2.158606362E0,2.254039049E0,5.489135265E0,7.389036179E0
2.160725217E0,2.206182480E0,5.517848969E0,7.326822758E0
2.162844071E0,2.177468538E0,5.556134224E0,7.288537979E0
2.164962925E0,2.134397745E0,5.560919762E0,7.255038261E0
2.167081779E0,2.124826431E0,5.580062389E0,7.178467751E0
2.169200581E0,2.120040894E0,5.618347645E0,7.106683254E0
2.171319435E0,2.124826431E0,5.623133183E0,7.034898758E0
2.173438290E0,2.153540373E0,5.651846886E0,6.977470875E0
2.175557144E0,2.191825628E0,5.675775528E0,6.910471916E0
2.177675998E0,2.220539331E0,5.699703693E0,6.848258495E0
2.179794800E0,2.249253273E0,5.709274769E0,6.786045074E0
2.181913654E0,2.292324066E0,5.723631859E0,6.738188744E0
2.184032508E0,2.292324066E0,5.742774487E0,6.704689026E0
2.186151362E0,2.311466694E0,5.757131100E0,6.671189308E0
2.188270165E0,2.311466694E0,5.761917114E0,6.642475605E0
2.190389019E0,2.297109842E0,5.737988472E0,6.642475605E0
2.192507873E0,2.325823545E0,5.742774487E0,6.623332977E0
2.194626727E0,2.316252232E0,5.714060307E0,6.628118515E0
2.196745581E0,2.321038008E0,5.670989513E0,6.585047722E0
2.198864383E0,2.340180635E0,5.618347645E0,6.570691109E0
2.200983237E0,2.368894339E0,5.570491314E0,6.551548481E0
2.203102092E0,2.392822742E0,5.522634506E0,6.513263226E0
2.205220946E0,2.426322222E0,5.426921844E0,6.489335060E0
2.207339800E0,2.416750908E0,5.388636589E0,6.474977970E0
2.209458602E0,2.407179594E0,5.369493961E0,6.474977970E0
2.211577456E0,2.388036966E0,5.374279499E0,6.484549522E0
2.213696310E0,2.368894339E0,5.398207664E0,6.474977970E0
2.215815165E0,2.349751949E0,5.426921844E0,6.470192432E0
2.217934019E0,2.325823545E0,5.474778175E0,6.465406895E0
2.220052821E0,2.301895380E0,5.489135265E0,6.508477688E0
2.222171675E0,2.301895380E0,5.517848969E0,6.518048763E0
2.224290529E0,2.316252232E0,5.565705299E0,6.556334019E0
2.226409383E0,2.330609322E0,5.589633465E0,6.608976364E0
2.228528237E0,2.378465652E0,5.608776093E0,6.652047157E0
2.230647040E0,2.435893536E0,5.632704735E0,6.699903488E0
2.232765894E0,2.498106956E0,5.661418438E0,6.719046116E0
2.234884748E0,2.545963287E0,5.680561066E0,6.776473522E0
2.237003602E0,2.608176708E0,5.704489231E0,6.814758778E0
2.239122456E0,2.665604353E0,5.757131100E0,6.862615108E0
2.241241258E0,2.718246460E0,5.781059742E0,6.876972198E0
2.243360112E0,2.770888567E0,5.843272686E0,6.934400082E0
2.245478967E0,2.813959360E0,5.862415314E0,6.977470875E0
2.247597821E0,2.852244616E0,5.891129494E0,7.020541668E0
2.249716675E0,2.857030153E0,5.934200287E0,7.063612461E0
2.251835477E0,2.876172781E0,5.943771362E0,7.111468792E0
2.253954331E0,2.852244616E0,5.938985825E0,7.168896675E0
2.256073185E0,2.847458839E0,5.919843197E0,7.178467751E0
2.258192040E0,2.823530674E0,5.919843197E0,7.235895634E0
2.260310894E0,2.775674343E0,5.886343479E0,7.288537979E0
2.262429696E0,2.742174864E0,5.843272686E0,7.331608772E0
2.264548498E0,2.713460922E0,5.833701611E0,7.384250641E0
2.266667404E0,2.703889608E0,5.819344521E0,7.441678524E0
2.268786258E0,2.670390129E0,5.785845280E0,7.499105930E0
2.270905112E0,2.646461725E0,5.781059742E0,7.523034573E0
2.273023915E0,2.622533560E0,5.776273727E0,7.566105366E0
2.275142769E0,2.593819857E0,5.757131100E0,7.570890903E0
2.277261623E0,2.550748825E0,5.752345562E0,7.604390144E0
2.279380477E0,2.545963287E0,5.733202934E0,7.599604607E0
2.281499279E0,2.502892494E0,5.699703693E0,7.575676441E0
2.283618133E0,2.459821701E0,5.685346603E0,7.556533813E0
2.285736987E0,2.407179594E0,5.637490273E0,7.551748276E0
2.287855842E0,2.373680115E0,5.570491314E0,7.518248558E0
2.289974696E0,2.340180635E0,5.503491879E0,7.527820110E0
2.292093498E0,2.316252232E0,5.474778175E0,7.513463020E0
2.294212352E0,2.292324066E0,5.417350292E0,7.518248558E0
2.296331206E0,2.292324066E0,5.359922886E0,7.499105930E0
2.298450060E0,2.287538528E0,5.288137913E0,7.489534855E0
2.300568915E0,2.292324066E0,5.221138954E0,7.446464062E0
2.302687717E0,2.301895380E0,5.192425251E0,7.436892986E0
2.304806571E0,2.297109842E0,5.163711071E0,7.403393269E0
2.306925425E0,2.301895380E0,5.187639713E0,7.393822193E0
2.309044279E0,2.325823545E0,5.182853699E0,7.384250641E0
2.311163133E0,2.306680918E0,5.216353416E0,7.384250641E0
2.313281935E0,2.282752752E0,5.245067120E0,7.389036179E0
2.315400842E0,2.263610125E0,5.264209747E0,7.384250641E0
2.317519644E0,2.254039049E0,5.307280540E0,7.389036179E0
2.319638498E0,2.201396942E0,5.340780258E0,7.393822193E0
2.321757352E0,2.177468538E0,5.359922886E0,7.465606689E0
2.323876154E0,2.148754835E0,5.402993679E0,7.499105930E0
2.325995008E0,2.124826431E0,5.412564754E0,7.518248558E0
2.328113862E0,2.096112728E0,5.422136307E0,7.537391186E0
2.330232717E0,2.072184324E0,5.417350292E0,7.551748276E0
2.332351571E0,2.048256159E0,5.441278458E0,7.580461979E0
2.334470373E0,2.038684845E0,5.455635548E0,7.585247993E0
2.336589227E0,2.048256159E0,5.474778175E0,7.609176159E0
2.338708081E0,2.053041935E0,5.460421085E0,7.580461979E0
2.340826935E0,2.033899307E0,5.474778175E0,7.561319351E0
2.342945737E0,2.053041935E0,5.498706341E0,7.542177200E0
2.345064592E0,2.053041935E0,5.498706341E0,7.546962738E0
2.347183446E0,2.057827473E0,5.508277893E0,7.523034573E0
2.349302300E0,2.038684845E0,5.517848969E0,7.499105930E0
2.351421154E0,2.024327993E0,5.527420521E0,7.494320393E0
2.353540008E0,2.019542217E0,5.532206059E0,7.479963779E0
2.355658810E0,2.014756680E0,5.560919762E0,7.479963779E0
2.357777665E0,2.019542217E0,5.575276852E0,7.460821152E0
2.359896519E0,2.043470621E0,5.613562107E0,7.484749317E0
2.362015373E0,2.072184324E0,5.647061348E0,7.484749317E0
2.364134227E0,2.110469580E0,5.704489231E0,7.494320393E0
2.366253029E0,2.139183521E0,5.766702652E0,7.494320393E0
2.368371883E0,2.143969059E0,5.828916073E0,7.503891945E0
2.370490737E0,2.153540373E0,5.900700569E0,7.566105366E0
2.372609592E0,2.143969059E0,5.986842155E0,7.609176159E0
2.374728394E0,2.153540373E0,6.068198204E0,7.685746193E0
2.376847248E0,2.148754835E0,6.130411625E0,7.800601959E0
2.378966102E0,2.163111687E0,6.187839508E0,7.862815380E0
2.381084956E0,2.139183521E0,6.250052929E0,7.987242222E0
2.383203810E0,2.139183521E0,6.326622963E0,8.068597794E0
2.385322612E0,2.129612207E0,6.360122681E0,8.169096947E0
2.387441467E0,2.110469580E0,6.393621922E0,8.250452042E0
2.389560321E0,2.134397745E0,6.427121639E0,8.346165657E0
2.391679175E0,2.148754835E0,6.427121639E0,8.413164139E0
2.393798029E0,2.201396942E0,6.460621357E0,8.480163574E0
2.395916831E0,2.258824587E0,6.436692715E0,8.547162056E0
2.398035685E0,2.306680918E0,6.422336102E0,8.590232849E0
2.400154540E0,2.359323025E0,6.398407936E0,8.604590416E0
2.402273394E0,2.407179594E0,6.384050846E0,8.618947029E0
2.404392248E0,2.459821701E0,6.336194515E0,8.623732567E0
2.406511050E0,2.488535643E0,6.302694798E0,8.604590416E0
2.408629904E0,2.498106956E0,6.254838467E0,8.580661774E0
2.410748758E0,2.474178553E0,6.211767673E0,8.547162056E0
2.412867612E0,2.435893536E0,6.173482418E0,8.494520187E0
2.414986415E0,2.411965132E0,6.139982700E0,8.451449394E0
2.417105269E0,2.354537487E0,6.096911907E0,8.389236450E0
2.419224123E0,2.301895380E0,6.063412666E0,8.331808090E0
2.421342977E0,2.230110645E0,6.049055576E0,8.264809608E0
2.423461831E0,2.187039852E0,6.034698486E0,8.202595711E0
2.425580633E0,2.120040894E0,6.029912949E0,8.135597229E0
2.427699487E0,2.062613010E0,6.020341873E0,8.097311974E0
2.429818342E0,2.005185366E0,6.010770321E0,8.030312538E0
2.431937196E0,1.957328916E0,5.991627693E0,8.030312538E0
2.434056050E0,1.904686809E0,5.982056618E0,7.992027760E0
2.436174852E0,1.871187329E0,5.958128452E0,8.006384850E0
2.438293706E0,1.813759565E0,5.948556900E0,8.039883614E0
2.440412560E0,1.785045743E0,5.938985825E0,8.044670105E0
2.442531415E0,1.775474429E0,5.910272121E0,8.035098076E0
2.444650269E0,1.761117458E0,5.876772404E0,8.054241180E0
2.446769071E0,1.761117458E0,5.843272686E0,8.073383331E0
2.448887925E0,1.785045743E0,5.809773445E0,8.068597794E0
2.451006779E0,1.904686809E0,5.651846886E0,8.250452042E0
2.453125633E0,2.478964329E0,5.278566837E0,8.752944946E0
2.455244487E0,3.527020693E0,4.876572609E0,9.126225471E0
2.457363290E0,4.048655987E0,4.804787636E0,9.030512810E0
2.459482144E0,4.005585194E0,4.943571568E0,8.671588898E0
2.461600998E0,3.522234917E0,5.230710506E0,8.193024635E0
2.463719852E0,2.837887764E0,5.532206059E0,7.781459332E0
2.465838706E0,2.258824587E0,5.771488190E0,7.566105366E0
2.467957508E0,1.890329838E0,5.919843197E0,7.499105930E0
2.470076362E0,1.761117458E0,6.020341873E0,7.551748276E0
2.472195217E0,1.799402595E0,6.049055576E0,7.676175117E0
2.474314071E0,1.938186288E0,6.053841114E0,7.824530125E0
2.476432873E0,2.124826431E0,6.005984783E0,7.944170952E0
2.478551727E0,2.292324066E0,5.972485542E0,8.039883614E0
2.480670581E0,2.402393818E0,5.905486107E0,8.044670105E0
2.482789435E0,2.469393015E0,5.862415314E0,8.006384850E0
2.484908290E0,2.445464849E0,5.814558983E0,7.901100159E0
2.487027144E0,2.373680115E0,5.790630817E0,7.781459332E0
2.489145946E0,2.282752752E0,5.795416355E0,7.661818027E0
2.491264800E0,2.167897224E0,5.776273727E0,7.575676441E0
2.493383654E0,2.076970100E0,5.766702652E0,7.489534855E0
2.495502508E0,1.981257200E0,5.752345562E0,7.470392227E0
2.497621362E0,1.923829436E0,5.757131100E0,7.432106972E0
2.499740165E0,1.880758643E0,5.766702652E0,7.427321434E0
2.501859019E0,1.852044702E0,5.771488190E0,7.436892986E0
2.503977873E0,1.852044702E0,5.781059742E0,7.422535896E0
2.506096727E0,1.852044702E0,5.790630817E0,7.427321434E0
2.508215529E0,1.875972986E0,5.809773445E0,7.432106972E0
2.510334383E0,1.899901152E0,5.819344521E0,7.460821152E0
2.512453237E0,1.919043779E0,5.843272686E0,7.456035137E0
2.514572092E0,1.923829436E0,5.843272686E0,7.436892986E0
2.516690946E0,1.933400750E0,5.838487148E0,7.432106972E0
2.518809748E0,1.947757602E0,5.833701611E0,7.432106972E0
2.520928602E0,1.952543259E0,5.857629776E0,7.422535896E0
2.523047456E0,1.962114573E0,5.848058701E0,7.412964344E0
2.525166310E0,1.981257200E0,5.833701611E0,7.389036179E0
2.527285165E0,1.986042738E0,5.790630817E0,7.389036179E0
2.529403967E0,2.005185366E0,5.781059742E0,7.412964344E0
2.531522821E0,2.014756680E0,5.761917114E0,7.408178806E0
2.533641675E0,2.000399828E0,5.757131100E0,7.432106972E0
2.535760529E0,2.009970903E0,5.737988472E0,7.441678524E0
2.537879383E0,1.976471543E0,5.737988472E0,7.475177765E0
2.539998185E0,1.957328916E0,5.718846321E0,7.499105930E0
2.542117040E0,1.952543259E0,5.714060307E0,7.532605648E0
2.544235894E0,1.942971945E0,5.709274769E0,7.561319351E0
2.546354748E0,1.942971945E0,5.690132141E0,7.585247993E0
2.548473602E0,1.923829436E0,5.680561066E0,7.599604607E0
2.550592456E0,1.914258122E0,5.647061348E0,7.613961697E0
2.552711258E0,1.914258122E0,5.651846886E0,7.661818027E0
2.554830112E0,1.909472466E0,5.656632900E0,7.685746193E0
2.556948967E0,1.904686809E0,5.642275810E0,7.714460373E0
2.559067769E0,1.919043779E0,5.632704735E0,7.728816986E0
2.561186623E0,1.923829436E0,5.637490273E0,7.747959614E0
2.563305477E0,1.923829436E0,5.627918720E0,7.781459332E0
2.565424331E0,1.923829436E0,5.623133183E0,7.795815945E0
2.567543185E0,1.919043779E0,5.599205017E0,7.805387497E0
2.569662040E0,1.914258122E0,5.575276852E0,7.838887215E0
2.571780842E0,1.895115495E0,5.560919762E0,7.853243828E0
2.573899696E0,1.904686809E0,5.556134224E0,7.867600918E0
2.576018550E0,1.919043779E0,5.565705299E0,7.881958008E0
2.578137404E0,1.923829436E0,5.575276852E0,7.910671711E0
2.580256206E0,1.952543259E0,5.584847927E0,7.915457249E0
2.582375060E0,1.966900229E0,5.623133183E0,7.944170952E0
2.584493915E0,1.928615093E0,5.699703693E0,7.944170952E0
2.586612769E0,1.962114573E0,5.728417397E0,7.958528042E0
2.588731623E0,1.971685886E0,5.747560024E0,7.987242222E0
2.590850477E0,1.971685886E0,5.718846321E0,8.015955925E0
2.592969279E0,2.062613010E0,5.694917679E0,8.025527000E0
2.595088133E0,2.172683001E0,5.651846886E0,8.059026718E0
2.597206987E0,2.244467735E0,5.623133183E0,8.063812256E0
2.599325842E0,2.297109842E0,5.589633465E0,8.078168869E0
2.601444696E0,2.311466694E0,5.565705299E0,8.082955360E0
2.603563498E0,2.340180635E0,5.551348686E0,8.092526436E0
2.605682352E0,2.373680115E0,5.536991596E0,8.116454124E0
2.607801206E0,2.421536446E0,5.513063431E0,8.154739380E0
2.609920060E0,2.483749866E0,5.498706341E0,8.173882484E0
2.612038915E0,2.522035122E0,5.489135265E0,8.207381248E0
2.614157717E0,2.550748825E0,5.498706341E0,8.231309891E0
2.616276571E0,2.569891453E0,5.469992638E0,8.250452042E0
2.618395425E0,2.574677229E0,5.474778175E0,8.274380684E0
2.620514279E0,2.545963287E0,5.498706341E0,8.298309326E0
2.622633133E0,2.507678032E0,5.508277893E0,8.303094864E0
2.624751987E0,2.464607239E0,5.517848969E0,8.331808090E0
2.626870790E0,2.450250387E0,5.532206059E0,8.336593628E0
2.628989644E0,2.426322222E0,5.541777134E0,8.355736732E0
2.631108498E0,2.431107759E0,5.556134224E0,8.374878883E0
2.633227300E0,2.426322222E0,5.560919762E0,8.394021988E0
2.635346154E0,2.402393818E0,5.584847927E0,8.384450912E0
2.637465008E0,2.383251429E0,5.599205017E0,8.398807526E0
2.639583862E0,2.335394859E0,5.608776093E0,8.374878883E0
2.641702717E0,2.321038008E0,5.613562107E0,8.374878883E0
2.643821571E0,2.268395901E0,5.623133183E0,8.403593063E0
2.645940425E0,2.220539331E0,5.637490273E0,8.413164139E0
2.648059227E0,2.196611166E0,5.627918720E0,8.422736168E0
2.650178081E0,2.167897224E0,5.661418438E0,8.456234932E0
2.652296935E0,2.158325911E0,5.661418438E0,8.470592499E0
2.654415790E0,2.143969059E0,5.670989513E0,8.499305725E0
2.656534644E0,2.129612207E0,5.661418438E0,8.537590981E0
2.658653446E0,2.124826431E0,5.661418438E0,8.542376518E0
2.660772248E0,2.072184324E0,5.642275810E0,8.561519623E0
2.662891154E0,2.019542217E0,5.642275810E0,8.580661774E0
2.665010008E0,1.976471543E0,5.603990555E0,8.599804878E0
2.667128654E0,1.919043779E0,5.570491314E0,8.609375954E0
2.669247665E0,1.861616015E0,5.532206059E0,8.618947029E0
2.671366519E0,1.818545222E0,5.493920803E0,8.623732567E0
2.673485373E0,1.765903115E0,5.455635548E0,8.633303642E0
2.675604227E0,1.741974831E0,5.402993679E0,8.638090134E0
2.677723029E0,1.718046665E0,5.379065514E0,8.638090134E0
2.679841831E0,1.727617979E0,5.331208706E0,8.633303642E0
2.681960737E0,1.761117458E0,5.335994720E0,8.599804878E0
2.684079592E0,1.770688772E0,5.302495003E0,8.599804878E0
2.686198446E0,1.799402595E0,5.288137913E0,8.585447311E0
2.688317248E0,1.813759565E0,5.292923450E0,8.566305161E0
2.690436102E0,1.847259045E0,5.283352375E0,8.547162056E0
2.692554956E0,1.890329838E0,5.302495003E0,8.551948547E0
2.694673810E0,1.933400750E0,5.302495003E0,8.537590981E0
2.696792665E0,1.952543259E0,5.307280540E0,8.528019905E0
2.698911467E0,1.981257200E0,5.312066078E0,8.523234367E0
2.701030321E0,1.986042738E0,5.321637630E0,8.537590981E0
2.703149175E0,2.000399828E0,5.340780258E0,8.537590981E0
2.705268029E0,2.005185366E0,5.340780258E0,8.532805443E0
2.707386883E0,1.986042738E0,5.364708424E0,8.532805443E0
2.709505737E0,1.986042738E0,5.383851051E0,8.532805443E0
2.711624540E0,1.986042738E0,5.393422127E0,8.528019905E0
2.713743394E0,1.957328916E0,5.407779217E0,8.518448830E0
2.715862248E0,1.966900229E0,5.422136307E0,8.504091263E0
2.717981102E0,1.981257200E0,5.412564754E0,8.470592499E0
2.720099956E0,1.995614052E0,5.426921844E0,8.441878319E0
2.722218758E0,2.009970903E0,5.422136307E0,8.413164139E0
2.724337612E0,2.029113531E0,5.450850010E0,8.398807526E0
2.726456467E0,2.048256159E0,5.460421085E0,8.384450912E0
2.728575321E0,2.062613010E0,5.479563713E0,8.360522270E0
2.730694175E0,2.067398787E0,5.513063431E0,8.370093346E0
2.732812977E0,2.086541414E0,5.556134224E0,8.355736732E0
2.734931831E0,2.096112728E0,5.575276852E0,8.360522270E0
2.737050685E0,2.115255117E0,5.594419479E0,8.327022552E0
2.739169540E0,2.139183521E0,5.613562107E0,8.341380119E0
2.741288394E0,2.153540373E0,5.632704735E0,8.331808090E0
2.743407196E0,2.167897224E0,5.637490273E0,8.322237015E0
2.745526050E0,2.177468538E0,5.666203976E0,8.317451477E0
2.747644904E0,2.196611166E0,5.670989513E0,8.327022552E0
2.749763758E0,2.220539331E0,5.675775528E0,8.322237015E0
2.751882612E0,2.230110645E0,5.642275810E0,8.350951195E0
2.754001415E0,2.258824587E0,5.627918720E0,8.350951195E0
2.756120269E0,2.254039049E0,5.603990555E0,8.350951195E0
2.758239123E0,2.258824587E0,5.584847927E0,8.360522270E0
2.760357977E0,2.297109842E0,5.594419479E0,8.456234932E0
2.762476831E0,2.306680918E0,5.589633465E0,8.623732567E0
2.764595633E0,2.340180635E0,5.623133183E0,8.752944946E0
2.766714487E0,2.340180635E0,5.627918720E0,8.839086533E0
2.768833342E0,2.311466694E0,5.594419479E0,8.834300995E0
2.770952196E0,2.282752752E0,5.546562672E0,8.786444664E0
2.773071050E0,2.258824587E0,5.508277893E0,8.733802795E0
2.775189904E0,2.215753794E0,5.455635548E0,8.662017822E0
2.777308706E0,2.158325911E0,5.374279499E0,8.585447311E0
2.779427560E0,1.895115495E0,4.972285271E0,8.595019341E0
2.781546415E0,1.435693622E0,4.120440483E0,8.700303078E0
2.783665269E0,1.497906923E0,4.134797573E0,8.561519623E0
2.785784071E0,1.497906923E0,4.115654945E0,8.657232285E0
2.787902925E0,1.785045743E0,3.938585997E0,8.719446182E0
2.790021779E0,2.167897224E0,3.933800459E0,8.633303642E0
2.792140633E0,2.459821701E0,4.077369690E0,8.456234932E0
2.794259487E0,2.608176708E0,4.302295208E0,8.317451477E0
2.796378342E0,2.589034081E0,4.579862595E0,8.226524353E0
2.798497144E0,2.469393015E0,4.876572609E0,8.178668022E0
2.800615998E0,2.321038008E0,5.149354458E0,8.216953278E0
2.802734852E0,2.105684042E0,5.364708424E0,8.274380684E0
2.804853706E0,1.938186288E0,5.522634506E0,8.350951195E0
2.806972560E0,1.823330879E0,5.632704735E0,8.398807526E0
2.809091362E0,1.761117458E0,5.704489231E0,8.456234932E0
2.811210217E0,1.741974831E0,5.752345562E0,8.475378036E0
2.813329071E0,1.789831281E0,5.771488190E0,8.446663857E0
2.815447925E0,1.847259045E0,5.776273727E0,8.365307808E0
2.817566779E0,1.909472466E0,5.785845280E0,8.293522835E0
2.819685581E0,1.981257200E0,5.800201893E0,8.169096947E0
2.821804435E0,2.062613010E0,5.804987907E0,8.073383331E0
2.823923290E0,2.158325911E0,5.814558983E0,7.968099594E0
2.826042144E0,2.230110645E0,5.843272686E0,7.901100159E0
2.828160998E0,2.311466694E0,5.867201328E0,7.843672752E0
2.830279800E0,2.359323025E0,5.891129494E0,7.805387497E0
2.832398654E0,2.416750908E0,5.924628735E0,7.810173035E0
2.834517508E0,2.459821701E0,5.953342915E0,7.853243828E0
2.836636362E0,2.478964329E0,5.958128452E0,7.848458290E0
2.838755217E0,2.522035122E0,5.948556900E0,7.896314621E0
2.840874019E0,2.555534601E0,6.001199245E0,7.896314621E0
2.842992873E0,2.550748825E0,6.020341873E0,7.886743546E0
2.845111727E0,2.550748825E0,6.025127411E0,7.905886173E0
2.847230581E0,2.517249346E0,6.015556335E0,7.896314621E0
2.849349435E0,2.493321180E0,5.948556900E0,7.929814339E0
2.851468237E0,2.450250387E0,5.891129494E0,7.963313580E0
2.853587092E0,2.411965132E0,5.824130535E0,8.001599312E0
2.855705946E0,2.421536446E0,5.728417397E0,8.049455643E0
2.857824800E0,2.445464849E0,5.603990555E0,8.111668587E0
2.859943654E0,2.474178553E0,5.513063431E0,8.145168304E0
2.862062456E0,2.464607239E0,5.441278458E0,8.149953842E0
2.864181310E0,2.397608280E0,5.422136307E0,8.193024635E0
2.866300165E0,2.158325911E0,5.479563713E0,8.283951759E0
2.868419019E0,1.928615093E0,5.560919762E0,8.370093346E0
2.870537873E0,1.866401672E0,5.570491314E0,8.475378036E0
2.872656727E0,1.971685886E0,5.508277893E0,8.585447311E0
2.874775529E0,2.177468538E0,5.422136307E0,8.676374435E0
2.876894383E0,2.407179594E0,5.326423168E0,8.752944946E0
2.879013237E0,2.589034081E0,5.221138954E0,8.767302513E0
2.881132092E0,2.660818815E0,5.182853699E0,8.743373871E0
2.883250946E0,2.651247501E0,5.178068161E0,8.719446182E0
2.885369800E0,2.589034081E0,5.173282623E0,8.652446747E0
2.887488602E0,2.541177750E0,5.178068161E0,8.633303642E0
2.889607456E0,2.545963287E0,5.149354458E0,8.652446747E0
2.891726310E0,2.612962246E0,5.120640278E0,8.666803360E0
2.893845165E0,2.660818815E0,5.053641319E0,8.700303078E0
2.895963967E0,2.689532757E0,5.029713154E0,8.729017258E0
2.898082821E0,2.699103832E0,5.000999451E0,8.743373871E0
2.900201675E0,2.679961443E0,5.010570526E0,8.733802795E0
2.902320529E0,2.608176708E0,5.024927616E0,8.714659691E0
2.904439383E0,2.522035122E0,5.053641319E0,8.714659691E0
2.906558185E0,2.435893536E0,5.058426857E0,8.714659691E0
2.908677040E0,2.349751949E0,5.077569485E0,8.714659691E0
2.910795894E0,2.263610125E0,5.082355499E0,8.709874153E0
2.912914748E0,2.182254314E0,5.077569485E0,8.719446182E0
2.915033602E0,2.153540373E0,5.072783947E0,8.705088615E0
2.917152404E0,2.096112728E0,5.072783947E0,8.690732002E0
2.919271258E0,2.038684845E0,5.087141037E0,8.647661209E0
2.921390112E0,1.942971945E0,5.091926575E0,8.590232849E0
2.923508967E0,1.804188251E0,5.077569485E0,8.518448830E0
2.925627821E0,1.674975872E0,5.029713154E0,8.470592499E0
2.927746623E0,1.569691658E0,5.015356064E0,8.422736168E0
2.929865477E0,1.445264935E0,4.981856823E0,8.360522270E0
2.931984331E0,1.354337573E0,4.948357105E0,8.312665939E0
2.934103185E0,1.220339537E0,4.938786030E0,8.260024071E0
2.936222040E0,1.105484009E0,4.948357105E0,8.255238533E0
2.938340842E0,1.004985452E0,4.962714195E0,8.255238533E0
2.940459696E0,9.188438654E-1,4.948357105E0,8.255238533E0
2.942578550E0,8.470591903E-1,4.957928658E0,8.269595146E0
2.944697404E0,7.896314859E-1,4.948357105E0,8.283951759E0
2.946816258E0,7.465606928E-1,4.938786030E0,8.303094864E0
2.948935060E0,7.322037220E-1,4.895715237E0,8.307880402E0
2.951053915E0,7.322037220E-1,4.867001057E0,8.317451477E0
2.953172769E0,7.561319470E-1,4.838287354E0,8.293522835E0
2.955291623E0,7.896314859E-1,4.795216560E0,8.240880966E0
2.957410477E0,8.374879360E-1,4.756931305E0,8.197810173E0
2.959529331E0,8.805587292E-1,4.718646049E0,8.145168304E0
2.961648133E0,9.427721500E-1,4.675575256E0,8.092526436E0
2.963766987E0,9.858429432E-1,4.666004181E0,8.073383331E0
2.965885842E0,1.057627559E0,4.651647091E0,8.049455643E0
2.968004696E0,1.359123230E0,4.579862595E0,7.901100159E0
2.970123550E0,1.689332843E0,4.469792843E0,7.738388538E0
2.972242352E0,1.966900229E0,4.421936035E0,7.575676441E0
2.974361206E0,2.230110645E0,4.374079704E0,7.398607731E0
2.976480060E0,2.483749866E0,4.340580463E0,7.226324558E0
2.978598915E0,2.603390932E0,4.340580463E0,7.068397999E0
2.980717769E0,2.603390932E0,4.374079704E0,7.010970116E0
2.982836571E0,2.464607239E0,4.455435753E0,7.068397999E0
2.984955425E0,2.292324066E0,4.546362877E0,7.202396393E0
2.987074279E0,2.110469580E0,4.632504463E0,7.360322475E0
2.989193133E0,2.000399828E0,4.661218643E0,7.518248558E0
2.991311987E0,1.981257200E0,4.680361271E0,7.676175117E0
2.993430842E0,1.947757602E0,4.699503899E0,7.810173035E0
2.995549644E0,1.885544300E0,4.733003139E0,7.910671711E0
2.997668498E0,1.875972986E0,4.747360229E0,7.929814339E0
2.999787352E0,1.871187329E0,4.761716843E0,7.934599876E0
3.001906206E0,1.852044702E0,4.780859470E0,7.910671711E0
3.004025060E0,1.818545222E0,4.809573650E0,7.886743546E0
3.006143862E0,1.794616938E0,4.814359188E0,7.858029366E0
3.008262717E0,1.804188251E0,4.828716278E0,7.843672752E0
3.010381571E0,1.823330879E0,4.819144726E0,7.843672752E0
3.012500425E0,1.804188251E0,4.852644444E0,7.848458290E0
3.014619279E0,1.765903115E0,4.852644444E0,7.901100159E0
3.016738081E0,1.694118381E0,4.847858906E0,7.977670670E0
3.018856935E0,1.636690736E0,4.881358147E0,8.049455643E0
3.020975790E0,1.569691658E0,4.857429981E0,8.145168304E0
3.023094644E0,1.545763373E0,4.838287354E0,8.207381248E0
3.025213498E0,1.536192179E0,4.819144726E0,8.264809608E0
3.027332300E0,1.526620865E0,4.761716843E0,8.298309326E0
3.029451154E0,1.550549030E0,4.747360229E0,8.312665939E0
3.031570008E0,1.564906001E0,4.718646049E0,8.312665939E0
3.033688810E0,1.564906001E0,4.694717884E0,8.327022552E0
3.035807717E0,1.555334687E0,4.632504463E0,8.293522835E0
3.037926571E0,1.545763373E0,4.637290478E0,8.288737297E0
3.040045373E0,1.545763373E0,4.579862595E0,8.303094864E0
3.042164227E0,1.545763373E0,4.560719967E0,8.307880402E0
3.044283081E0,1.531406522E0,4.536791801E0,8.322237015E0
3.046401935E0,1.507478237E0,4.508078098E0,8.341380119E0
3.048520790E0,1.483550072E0,4.503292084E0,8.327022552E0
3.050639592E0,1.459621787E0,4.469792843E0,8.331808090E0
3.052758446E0,1.402194023E0,4.474578381E0,8.365307808E0
3.054877300E0,1.344766378E0,4.455435753E0,8.398807526E0
3.056996154E0,1.296909928E0,4.421936035E0,8.422736168E0
3.059115008E0,1.239482164E0,4.445864677E0,8.456234932E0
3.061233810E0,1.162911773E0,4.445864677E0,8.499305725E0
3.063352665E0,1.134197950E0,4.450650215E0,8.532805443E0
3.065471519E0,1.091127157E0,4.474578381E0,8.542376518E0
3.067590373E0,1.033699393E0,4.465006828E0,8.504091263E0
3.069709175E0,9.906286001E-1,4.426722050E0,8.504091263E0
3.071828029E0,9.236295223E-1,4.445864677E0,8.518448830E0
3.073946883E0,8.853443861E-1,4.426722050E0,8.547162056E0
3.076065737E0,8.662018180E-1,4.441078663E0,8.580661774E0
3.078184592E0,8.662018180E-1,4.450650215E0,8.604590416E0
3.080303446E0,8.662018180E-1,4.460221291E0,8.614161491E0
3.082422248E0,8.997012973E-1,4.503292084E0,8.604590416E0
3.084541102E0,9.571290612E-1,4.498506546E0,8.595019341E0
3.086659956E0,9.954141974E-1,4.508078098E0,8.575876236E0
3.088778810E0,1.043270707E0,4.493721008E0,8.566305161E0
3.090897665E0,1.091127157E0,4.536791801E0,8.566305161E0
3.093016467E0,1.134197950E0,4.541577339E0,8.547162056E0
3.095135321E0,1.153340459E0,4.560719967E0,8.513663292E0
3.097254175E0,1.182054400E0,4.565505505E0,8.508877754E0
3.099373029E0,1.205982566E0,4.575077057E0,8.465806961E0
3.101491831E0,1.220339537E0,4.579862595E0,8.403593063E0
3.103610737E0,1.272981644E0,4.570291042E0,8.327022552E0
3.105729540E0,1.306481123E0,4.589433670E0,8.269595146E0
3.107848394E0,1.335195065E0,4.599005222E0,8.202595711E0
3.109967248E0,1.363908887E0,4.579862595E0,8.154739380E0
3.112086102E0,1.383051515E0,4.575077057E0,8.102097511E0
3.114204956E0,1.387837172E0,4.575077057E0,8.073383331E0
3.116323810E0,1.392622828E0,4.551148891E0,8.049455643E0
3.118442612E0,1.406979680E0,4.565505505E0,8.025527000E0
3.120561467E0,1.416550994E0,4.546362877E0,8.006384850E0
3.122680321E0,1.416550994E0,4.551148891E0,7.982456207E0
3.124799175E0,1.411765337E0,4.560719967E0,7.953742504E0
3.126918029E0,1.406979680E0,4.541577339E0,7.944170952E0
3.129036831E0,1.392622828E0,4.527220249E0,7.929814339E0
3.131155685E0,1.392622828E0,4.517649174E0,7.915457249E0
3.133274540E0,1.378265858E0,4.508078098E0,7.901100159E0
3.135393394E0,1.368694544E0,4.498506546E0,7.901100159E0
3.137512196E0,1.344766378E0,4.493721008E0,7.891529083E0
3.139631050E0,1.344766378E0,4.484149456E0,7.896314621E0
3.141749904E0,1.344766378E0,4.469792843E0,7.901100159E0
3.143868758E0,1.354337573E0,4.436293125E0,7.901100159E0
3.145987612E0,1.363908887E0,4.441078663E0,7.896314621E0
3.148106467E0,1.383051515E0,4.421936035E0,7.910671711E0
3.150225269E0,1.383051515E0,4.417150497E0,7.901100159E0
3.152344123E0,1.387837172E0,4.417150497E0,7.872386456E0
3.154462977E0,1.397408366E0,4.393222332E0,7.838887215E0
3.156581883E0,1.402194023E0,4.388436794E0,7.843672752E0
3.158700685E0,1.392622828E0,4.374079704E0,7.834101200E0
3.160819540E0,1.392622828E0,4.398007870E0,7.834101200E0
3.162938342E0,1.392622828E0,4.388436794E0,7.848458290E0
3.165057196E0,1.392622828E0,4.388436794E0,7.877171993E0
3.167176050E0,1.383051515E0,4.388436794E0,7.886743546E0
3.169294904E0,1.416550994E0,4.393222332E0,7.901100159E0
3.171413758E0,1.435693622E0,4.383651257E0,7.901100159E0
3.173532560E0,1.464407444E0,4.412364960E0,7.920242786E0
3.175651415E0,1.502692580E0,4.398007870E0,7.896314621E0
3.177770269E0,1.493121386E0,4.421936035E0,7.891529083E0
3.179889123E0,1.502692580E0,4.441078663E0,7.881958008E0
3.182007925E0,1.483550072E0,4.431507587E0,7.901100159E0
3.184126779E0,1.473978758E0,4.426722050E0,7.929814339E0
3.186245633E0,1.445264935E0,4.445864677E0,7.944170952E0
3.188364487E0,1.430907965E0,4.455435753E0,7.987242222E0
3.190483342E0,1.421336651E0,4.450650215E0,8.044670105E0
3.192602196E0,1.406979680E0,4.441078663E0,8.059026718E0
3.194720998E0,1.392622828E0,4.455435753E0,8.082955360E0
3.196839852E0,1.392622828E0,4.455435753E0,8.116454124E0
3.198958706E0,1.378265858E0,4.455435753E0,8.154739380E0
3.201077560E0,1.354337573E0,4.479363918E0,8.193024635E0
3.203196415E0,1.344766378E0,4.484149456E0,8.236095428E0
3.205315217E0,1.349551916E0,4.498506546E0,8.245666504E0
3.207434071E0,1.416550994E0,4.536791801E0,8.293522835E0
3.209552925E0,1.497906923E0,4.536791801E0,8.327022552E0
3.211671779E0,1.564906001E0,4.493721008E0,8.331808090E0
3.213790633E0,1.502692580E0,4.450650215E0,8.370093346E0
3.215909487E0,1.383051515E0,4.402793884E0,8.417949677E0
3.218028290E0,1.272981644E0,4.398007870E0,8.480163574E0
3.220147144E0,1.191625714E0,4.388436794E0,8.537590981E0
3.222265998E0,1.153340459E0,4.388436794E0,8.580661774E0
3.224384852E0,1.158126116E0,4.374079704E0,8.614161491E0
3.226503706E0,1.172483087E0,4.378865242E0,8.623732567E0
3.228622508E0,1.186840057E0,4.388436794E0,8.623732567E0
3.230741362E0,1.225125194E0,4.369294167E0,8.647661209E0
3.232860217E0,1.249053478E0,4.388436794E0,8.642875671E0
3.234979071E0,1.292124271E0,4.388436794E0,8.628518105E0
3.237097873E0,1.320838094E0,4.388436794E0,8.609375954E0
3.239216727E0,1.354337573E0,4.378865242E0,8.604590416E0
3.241335581E0,1.378265858E0,4.398007870E0,8.590232849E0
3.243454435E0,1.392622828E0,4.388436794E0,8.595019341E0
3.245573290E0,1.397408366E0,4.378865242E0,8.609375954E0
3.247692144E0,1.406979680E0,4.412364960E0,8.614161491E0
3.249810998E0,1.397408366E0,4.383651257E0,8.604590416E0
3.251929800E0,1.383051515E0,4.383651257E0,8.609375954E0
3.254048654E0,1.402194023E0,4.393222332E0,8.595019341E0
3.256167508E0,1.411765337E0,4.402793884E0,8.585447311E0
3.258286362E0,1.421336651E0,4.407579422E0,8.551948547E0
3.260405217E0,1.435693622E0,4.417150497E0,8.528019905E0
3.262524019E0,1.430907965E0,4.426722050E0,8.508877754E0
3.264642873E0,1.440479279E0,4.431507587E0,8.475378036E0
3.266761727E0,1.440479279E0,4.465006828E0,8.475378036E0
3.268880581E0,1.445264935E0,4.484149456E0,8.451449394E0
3.270999435E0,1.440479279E0,4.517649174E0,8.422736168E0
3.273118237E0,1.435693622E0,4.560719967E0,8.403593063E0
3.275237092E0,1.435693622E0,4.575077057E0,8.422736168E0
3.277355946E0,1.426122308E0,4.599005222E0,8.413164139E0
3.279474800E0,1.402194023E0,4.599005222E0,8.413164139E0
3.281593654E0,1.387837172E0,4.618147850E0,8.394021988E0
3.283712456E0,1.383051515E0,4.603790760E0,8.413164139E0
3.285831310E0,1.392622828E0,4.608576298E0,8.384450912E0
3.287950165E0,1.387837172E0,4.608576298E0,8.365307808E0
3.290069019E0,1.406979680E0,4.613361835E0,8.360522270E0
3.292187873E0,1.421336651E0,4.613361835E0,8.341380119E0
3.294306727E0,1.435693622E0,4.599005222E0,8.331808090E0
3.296425529E0,1.435693622E0,4.589433670E0,8.303094864E0
3.298544383E0,1.426122308E0,4.584648132E0,8.274380684E0
3.300663237E0,1.445264935E0,4.565505505E0,8.250452042E0
3.302782092E0,1.450050473E0,4.560719967E0,8.231309891E0
3.304900946E0,1.459621787E0,4.527220249E0,8.216953278E0
3.307019748E0,1.464407444E0,4.527220249E0,8.173882484E0
3.309138602E0,1.464407444E0,4.517649174E0,8.149953842E0
3.311257456E0,1.459621787E0,4.508078098E0,8.135597229E0
3.313376310E0,1.469193101E0,4.503292084E0,8.121239662E0
3.315495165E0,1.488335729E0,4.488935471E0,8.116454124E0
3.317613967E0,1.502692580E0,4.498506546E0,8.111668587E0
3.319732821E0,1.497906923E0,4.484149456E0,8.111668587E0
3.321851675E0,1.493121386E0,4.498506546E0,8.106883049E0
3.323970529E0,1.512263894E0,4.484149456E0,8.097311974E0
3.326089383E0,1.512263894E0,4.503292084E0,8.111668587E0
3.328208237E0,1.512263894E0,4.493721008E0,8.111668587E0
3.330327040E0,1.493121386E0,4.503292084E0,8.140382767E0
3.332445894E0,1.497906923E0,4.493721008E0,8.121239662E0
3.334564748E0,1.526620865E0,4.508078098E0,8.149953842E0
3.336683602E0,1.540977836E0,4.498506546E0,8.154739380E0
3.338802456E0,1.584048629E0,4.503292084E0,8.140382767E0
3.340921258E0,1.631905079E0,4.508078098E0,8.164310455E0
3.343040112E0,1.665404558E0,4.522434711E0,8.159524918E0
3.345158967E0,1.713261008E0,4.522434711E0,8.169096947E0
3.347277821E0,1.756331801E0,4.536791801E0,8.169096947E0
3.349396675E0,1.770688772E0,4.541577339E0,8.183453560E0
3.351515529E0,1.785045743E0,4.541577339E0,8.188239098E0
3.353634331E0,1.818545222E0,4.536791801E0,8.236095428E0
3.355753185E0,1.813759565E0,4.541577339E0,8.274380684E0
3.357872040E0,1.799402595E0,4.570291042E0,8.303094864E0
3.359990894E0,1.785045743E0,4.579862595E0,8.336593628E0
3.362109696E0,1.799402595E0,4.570291042E0,8.374878883E0
3.364228550E0,1.770688772E0,4.589433670E0,8.403593063E0
3.366347404E0,1.780260086E0,4.613361835E0,8.432307243E0
3.368466258E0,1.780260086E0,4.618147850E0,8.451449394E0
3.370585112E0,1.775474429E0,4.651647091E0,8.456234932E0
3.372703967E0,1.785045743E0,4.642076015E0,8.451449394E0
3.374822821E0,1.794616938E0,4.680361271E0,8.465806961E0
3.376941623E0,1.808973908E0,4.685146809E0,8.465806961E0
3.379060477E0,1.818545222E0,4.699503899E0,8.461020470E0
3.381179331E0,1.828116536E0,4.685146809E0,8.451449394E0
3.383298185E0,1.842473388E0,4.704289436E0,8.441878319E0
3.385417040E0,1.852044702E0,4.704289436E0,8.427521706E0
3.387535842E0,1.837687731E0,4.728217602E0,8.437092781E0
3.389654696E0,1.823330879E0,4.747360229E0,8.417949677E0
3.391773550E0,1.804188251E0,4.747360229E0,8.403593063E0
3.393892404E0,1.770688772E0,4.761716843E0,8.413164139E0
3.396011258E0,1.746760488E0,4.776073933E0,8.427521706E0
3.398130060E0,1.708475351E0,4.785645485E0,8.398807526E0
3.400248915E0,1.665404558E0,4.800002098E0,8.398807526E0
3.402367769E0,1.655833244E0,4.838287354E0,8.413164139E0
3.404486623E0,1.636690736E0,4.828716278E0,8.422736168E0
3.406605477E0,1.622333765E0,4.843072891E0,8.408378601E0
3.408724279E0,1.617548108E0,4.843072891E0,8.432307243E0
3.410843133E0,1.617548108E0,4.852644444E0,8.427521706E0
3.412961987E0,1.593619823E0,4.867001057E0,8.427521706E0
3.415080842E0,1.612762451E0,4.876572609E0,8.427521706E0
3.417199696E0,1.588834286E0,4.881358147E0,8.451449394E0
3.419318550E0,1.607976794E0,4.886143684E0,8.417949677E0
3.421437352E0,1.622333765E0,4.871787071E0,8.417949677E0
3.423556206E0,1.627119422E0,4.871787071E0,8.422736168E0
3.425675060E0,1.636690736E0,4.871787071E0,8.403593063E0
3.427793915E0,1.655833244E0,4.876572609E0,8.394021988E0
3.429912769E0,1.670190215E0,4.862215519E0,8.403593063E0
3.432031623E0,1.684547186E0,4.857429981E0,8.389236450E0
3.434150425E0,1.679761529E0,4.847858906E0,8.374878883E0
3.436269279E0,1.689332843E0,4.852644444E0,8.384450912E0
3.438388133E0,1.689332843E0,4.843072891E0,8.374878883E0
3.440506987E0,1.689332843E0,4.838287354E0,8.374878883E0
3.442625842E0,1.694118381E0,4.838287354E0,8.384450912E0
3.444744644E0,1.694118381E0,4.843072891E0,8.398807526E0
3.446863498E0,1.698904037E0,4.833501816E0,8.398807526E0
3.448982352E0,1.718046665E0,4.847858906E0,8.403593063E0
3.451101206E0,1.713261008E0,4.857429981E0,8.413164139E0
3.453220060E0,1.698904037E0,4.862215519E0,8.417949677E0
3.455338862E0,1.684547186E0,4.857429981E0,8.441878319E0
3.457457717E0,1.674975872E0,4.867001057E0,8.451449394E0
3.459576571E0,1.651047587E0,4.881358147E0,8.480163574E0
3.461695425E0,1.627119422E0,4.886143684E0,8.504091263E0
3.463814279E0,1.593619823E0,4.890929699E0,8.537590981E0
3.465933081E0,1.579262972E0,4.881358147E0,8.561519623E0
3.468051935E0,1.579262972E0,4.843072891E0,8.571090698E0
3.470170790E0,2.000399828E0,4.273581028E0,8.523234367E0
3.472289644E0,2.402393818E0,3.847658873E0,8.197810173E0
3.474408498E0,2.411965132E0,3.866801500E0,8.135597229E0
3.476527300E0,2.344966173E0,3.823730469E0,7.958528042E0
3.478646154E0,2.239681959E0,3.852444410E0,7.881958008E0
3.480765008E0,1.981257200E0,3.972085476E0,7.992027760E0
3.482883862E0,1.670190215E0,4.106083870E0,8.169096947E0
3.485002717E0,1.378265858E0,4.292723656E0,8.403593063E0
3.487121571E0,1.148554921E0,4.541577339E0,8.633303642E0
3.489240373E0,1.081555843E0,4.752145767E0,8.695517540E0
3.491359227E0,1.105484009E0,4.967499733E0,8.743373871E0
3.493478081E0,1.134197950E0,5.158925533E0,8.685946465E0
3.495596935E0,1.201196909E0,5.292923450E0,8.595019341E0
3.497715790E0,1.296909928E0,5.393422127E0,8.489734650E0
3.499834592E0,1.383051515E0,5.446064472E0,8.360522270E0
3.501953446E0,1.445264935E0,5.460421085E0,8.264809608E0
3.504072300E0,1.497906923E0,5.450850010E0,8.183453560E0
3.506191154E0,1.531406522E0,5.441278458E0,8.121239662E0
3.508310008E0,1.545763373E0,5.412564754E0,8.097311974E0
3.510428862E0,1.550549030E0,5.402993679E0,8.116454124E0
3.512547665E0,1.531406522E0,5.393422127E0,8.159524918E0
3.514666519E0,1.526620865E0,5.383851051E0,8.216953278E0
3.516785373E0,1.502692580E0,5.383851051E0,8.274380684E0
3.518904227E0,1.459621787E0,5.379065514E0,8.346165657E0
3.521023081E0,1.397408366E0,5.383851051E0,8.403593063E0
3.523141935E0,1.363908887E0,5.388636589E0,8.480163574E0
3.525260737E0,1.344766378E0,5.374279499E0,8.537590981E0
3.527379592E0,1.306481123E0,5.379065514E0,8.595019341E0
3.529498446E0,1.311266780E0,5.340780258E0,8.642875671E0
3.531617300E0,1.354337573E0,5.316852093E0,8.705088615E0
3.533736102E0,1.387837172E0,5.278566837E0,8.729017258E0
3.535854956E0,1.430907965E0,5.259424210E0,8.767302513E0
3.537973810E0,1.483550072E0,5.240281582E0,8.776873589E0
3.540092665E0,1.526620865E0,5.206781864E0,8.800801277E0
3.542211519E0,1.545763373E0,5.163711071E0,8.843872070E0
3.544330373E0,1.579262972E0,5.130211830E0,8.877371788E0
3.546449227E0,1.617548108E0,5.087141037E0,8.915657043E0
3.548568029E0,1.636690736E0,5.039284706E0,8.977870941E0
3.550686883E0,1.598405480E0,4.996213913E0,9.035298347E0
3.552805737E0,1.555334687E0,4.962714195E0,9.111868858E0
3.554924592E0,1.560120344E0,4.914857864E0,9.193224907E0
3.557043394E0,1.545763373E0,4.871787071E0,9.274580956E0
3.559162248E0,1.526620865E0,4.852644444E0,9.327222824E0
3.561281102E0,1.512263894E0,4.843072891E0,9.384650230E0
3.563399956E0,1.531406522E0,4.828716278E0,9.413364410E0
3.565518810E0,1.536192179E0,4.819144726E0,9.442078590E0
3.567637612E0,1.588834286E0,4.795216560E0,9.485149384E0
3.569756467E0,1.603191137E0,4.819144726E0,9.494720459E0
3.571875321E0,1.631905079E0,4.823930264E0,9.528220177E0
3.573994175E0,1.660618901E0,4.823930264E0,9.533005714E0
3.576113029E0,1.670190215E0,4.828716278E0,9.552147865E0
3.578231883E0,1.684547186E0,4.857429981E0,9.576076508E0
3.580350685E0,1.674975872E0,4.867001057E0,9.576076508E0
3.582469540E0,1.703689694E0,4.886143684E0,9.552147865E0
3.584588394E0,1.718046665E0,4.910071850E0,9.547362328E0
3.586707248E0,1.727617979E0,4.910071850E0,9.509077072E0
3.588826102E0,1.727617979E0,4.919643402E0,9.480362892E0
3.590944956E0,1.741974831E0,4.943571568E0,9.418149948E0
3.593063758E0,1.756331801E0,4.977071285E0,9.370293617E0
3.595182612E0,1.785045743E0,4.977071285E0,9.312865257E0
3.597301467E0,1.794616938E0,5.000999451E0,9.279366493E0
3.599420321E0,1.799402595E0,5.015356064E0,9.226723671E0
3.601539175E0,1.828116536E0,5.024927616E0,9.178867340E0
3.603657977E0,1.842473388E0,5.029713154E0,9.121439934E0
3.605776831E0,1.871187329E0,5.058426857E0,9.092725754E0
3.607895685E0,1.890329838E0,5.044070244E0,9.073583603E0
3.610014540E0,1.871187329E0,5.034498692E0,9.016156197E0
3.612133394E0,1.861616015E0,5.000999451E0,9.025727272E0
3.614252196E0,1.828116536E0,4.996213913E0,9.035298347E0
3.616371050E0,1.765903115E0,4.972285271E0,9.040083885E0
3.618489904E0,1.737189293E0,4.972285271E0,9.064012527E0
3.620608758E0,1.679761529E0,4.962714195E0,9.054440498E0
3.622727612E0,1.660618901E0,4.962714195E0,9.044869423E0
3.624846467E0,1.665404558E0,4.991427898E0,9.006584167E0
3.626965269E0,1.684547186E0,4.977071285E0,9.001798630E0
3.629084123E0,1.751546144E0,4.953142643E0,9.006584167E0
3.631202977E0,1.756331801E0,4.953142643E0,8.997013092E0
3.633321831E0,1.732403636E0,4.962714195E0,9.006584167E0
3.635440685E0,1.703689694E0,4.977071285E0,9.006584167E0
3.637559487E0,1.679761529E0,4.996213913E0,8.977870941E0
3.639678342E0,1.703689694E0,5.010570526E0,8.925228119E0
3.641797196E0,1.741974831E0,5.024927616E0,8.877371788E0
3.643916050E0,1.799402595E0,5.034498692E0,8.819944382E0
3.646034904E0,1.952543259E0,5.024927616E0,8.767302513E0
3.648153758E0,2.038684845E0,5.020142078E0,8.762516975E0
3.650272560E0,2.053041935E0,5.010570526E0,8.786444664E0
3.652391415E0,2.033899307E0,5.005784988E0,8.810373306E0
3.654510269E0,2.005185366E0,5.015356064E0,8.800801277E0
3.656629123E0,1.981257200E0,5.015356064E0,8.800801277E0
3.658747977E0,1.957328916E0,5.044070244E0,8.786444664E0
3.660866831E0,1.962114573E0,5.044070244E0,8.767302513E0
3.662985633E0,2.019542217E0,5.034498692E0,8.748159409E0
3.665104487E0,2.086541414E0,5.024927616E0,8.757730484E0
3.667223342E0,2.086541414E0,5.010570526E0,8.791230202E0
3.669342196E0,2.014756680E0,5.020142078E0,8.815158844E0
3.671460998E0,1.957328916E0,5.039284706E0,8.834300995E0
3.673579852E0,1.885544300E0,5.048855782E0,8.834300995E0
3.675698706E0,1.842473388E0,5.053641319E0,8.772088051E0
3.677817560E0,1.808973908E0,5.082355499E0,8.738588333E0
3.679936415E0,1.804188251E0,5.096712112E0,8.714659691E0
3.682055269E0,1.818545222E0,5.115854740E0,8.685946465E0
3.684174071E0,1.861616015E0,5.130211830E0,8.685946465E0
3.686292925E0,1.895115495E0,5.120640278E0,8.666803360E0
3.688411779E0,1.928615093E0,5.096712112E0,8.685946465E0
3.690530633E0,2.033899307E0,4.981856823E0,8.685946465E0
3.692649487E0,2.081755638E0,4.914857864E0,8.733802795E0
3.694768342E0,2.024327993E0,4.886143684E0,8.757730484E0
3.696887144E0,1.928615093E0,4.876572609E0,8.786444664E0
3.699005998E0,1.847259045E0,4.886143684E0,8.776873589E0
3.701124852E0,1.770688772E0,4.876572609E0,8.800801277E0
3.703243706E0,1.737189293E0,4.890929699E0,8.834300995E0
3.705362560E0,1.708475351E0,4.914857864E0,8.853444099E0
3.707481362E0,1.718046665E0,4.948357105E0,8.891729355E0
3.709600217E0,1.751546144E0,4.972285271E0,8.920442581E0
3.711719071E0,1.794616938E0,5.005784988E0,8.930013657E0
3.713837925E0,1.866401672E0,4.991427898E0,8.891729355E0
3.715956779E0,1.990828395E0,4.910071850E0,8.906085968E0
3.718075581E0,2.110469580E0,4.852644444E0,8.915657043E0
3.720194435E0,2.076970100E0,4.871787071E0,8.953942299E0
3.722313290E0,2.029113531E0,4.895715237E0,8.963513374E0
3.724432144E0,2.005185366E0,4.943571568E0,8.896514893E0
3.726550998E0,2.000399828E0,4.957928658E0,8.786444664E0
3.728669852E0,2.033899307E0,4.996213913E0,8.681160927E0
3.730788654E0,2.067398787E0,5.024927616E0,8.595019341E0
3.732907508E0,2.115255117E0,5.039284706E0,8.547162056E0
3.735026362E0,2.177468538E0,5.063212872E0,8.480163574E0
3.737145217E0,2.225325108E0,5.053641319E0,8.470592499E0
3.739264071E0,2.225325108E0,5.053641319E0,8.437092781E0
3.741382873E0,2.230110645E0,5.048855782E0,8.456234932E0
3.743501727E0,2.206182480E0,5.034498692E0,8.465806961E0
3.745620581E0,2.187039852E0,5.015356064E0,8.484949112E0
3.747739435E0,2.139183521E0,4.991427898E0,8.523234367E0
3.749858290E0,2.110469580E0,4.977071285E0,8.556734085E0
3.751977144E0,2.048256159E0,4.962714195E0,8.595019341E0
3.754095946E0,2.005185366E0,4.938786030E0,8.642875671E0
3.756214800E0,1.952543259E0,4.910071850E0,8.700303078E0
3.758333654E0,1.871187329E0,4.876572609E0,8.800801277E0
3.760452508E0,1.818545222E0,4.857429981E0,8.901300430E0
3.762571362E0,1.780260086E0,4.838287354E0,8.944371223E0
3.764690165E0,1.823330879E0,4.814359188E0,9.001798630E0
3.766809019E0,1.871187329E0,4.780859470E0,9.011369705E0
3.768927873E0,1.990828395E0,4.651647091E0,9.006584167E0
3.771046727E0,2.043470621E0,4.632504463E0,9.040083885E0
3.773165581E0,2.057827473E0,4.666004181E0,9.097511292E0
3.775284435E0,2.081755638E0,4.713860512E0,9.092725754E0
3.777403237E0,2.440679073E0,4.886143684E0,9.437292099E0
3.779522092E0,2.483749866E0,4.905286312E0,9.389435768E0
3.781640946E0,2.354537487E0,4.919643402E0,9.274580956E0
3.783759800E0,2.273181438E0,4.948357105E0,9.131011009E0
3.785878654E0,2.258824587E0,4.986642361E0,9.011369705E0
3.787997456E0,2.244467735E0,4.977071285E0,8.896514893E0
3.790116310E0,2.225325108E0,4.962714195E0,8.853444099E0
3.792235165E0,2.201396942E0,4.957928658E0,8.843872070E0
3.794354019E0,2.148754835E0,4.934000492E0,8.872586250E0
3.796472873E0,2.105684042E0,4.910071850E0,8.896514893E0
3.798591675E0,2.029113531E0,4.881358147E0,8.915657043E0
3.800710529E0,1.976471543E0,4.847858906E0,8.934800148E0
3.802829383E0,1.923829436E0,4.819144726E0,8.934800148E0
3.804948237E0,1.861616015E0,4.795216560E0,8.949156761E0
3.807067092E0,1.852044702E0,4.804787636E0,8.910871506E0
3.809185946E0,1.837687731E0,4.780859470E0,8.910871506E0
3.811304748E0,1.842473388E0,4.780859470E0,8.863015175E0
3.813423602E0,1.847259045E0,4.814359188E0,8.819944382E0
3.815542456E0,1.880758643E0,4.819144726E0,8.781659126E0
3.817661362E0,1.904686809E0,4.838287354E0,8.748159409E0
3.819780165E0,1.957328916E0,4.862215519E0,8.681160927E0
3.821899279E0,1.981257200E0,4.895715237E0,8.609375954E0
3.824017821E0,2.000399828E0,4.890929699E0,8.551948547E0
3.826136675E0,2.057827473E0,4.881358147E0,8.456234932E0
3.828255529E0,2.105684042E0,4.890929699E0,8.374878883E0
3.830374383E0,2.115255117E0,4.867001057E0,8.336593628E0
3.832493237E0,2.124826431E0,4.847858906E0,8.303094864E0
3.834612092E0,2.115255117E0,4.838287354E0,8.264809608E0
3.836730894E0,2.100898266E0,4.838287354E0,8.264809608E0
3.838849748E0,2.086541414E0,4.823930264E0,8.216953278E0
3.840968602E0,2.053041935E0,4.809573650E0,8.183453560E0
3.843087456E0,2.029113531E0,4.814359188E0,8.154739380E0
3.845206310E0,2.005185366E0,4.795216560E0,8.078168869E0
3.847325112E0,1.962114573E0,4.766502857E0,8.054241180E0
3.849443967E0,1.919043779E0,4.756931305E0,8.049455643E0
3.851562821E0,1.899901152E0,4.733003139E0,8.063812256E0
3.853681675E0,1.861616015E0,4.728217602E0,8.111668587E0
3.855800529E0,1.808973908E0,4.723432064E0,8.149953842E0
3.857919331E0,1.789831281E0,4.752145767E0,8.154739380E0
3.860038185E0,1.770688772E0,4.756931305E0,8.193024635E0
3.862157040E0,1.761117458E0,4.800002098E0,8.226524353E0
3.864275894E0,1.732403636E0,4.814359188E0,8.221738815E0
3.866394748E0,1.737189293E0,4.847858906E0,8.221738815E0
3.868513602E0,1.741974831E0,4.871787071E0,8.207381248E0
3.870632404E0,1.746760488E0,4.895715237E0,8.188239098E0
3.872751258E0,1.780260086E0,4.895715237E0,8.154739380E0
3.874870112E0,1.775474429E0,4.895715237E0,8.164310455E0
3.876988967E0,1.775474429E0,4.895715237E0,8.169096947E0
3.879107821E0,1.785045743E0,4.895715237E0,8.216953278E0
3.881226675E0,1.785045743E0,4.890929699E0,8.245666504E0
3.883345477E0,1.770688772E0,4.886143684E0,8.264809608E0
3.885464331E0,1.761117458E0,4.852644444E0,8.283951759E0
3.887583185E0,1.761117458E0,4.838287354E0,8.298309326E0
3.889702040E0,1.732403636E0,4.804787636E0,8.293522835E0
3.891820894E0,1.698904037E0,4.776073933E0,8.303094864E0
3.893939748E0,1.665404558E0,4.752145767E0,8.336593628E0
3.896058550E0,1.651047587E0,4.728217602E0,8.355736732E0
3.898177404E0,1.617548108E0,4.699503899E0,8.312665939E0
3.900296258E0,1.607976794E0,4.709074974E0,8.327022552E0
3.902415112E0,1.584048629E0,4.694717884E0,8.298309326E0
3.904533915E0,1.545763373E0,4.713860512E0,8.293522835E0
3.906652769E0,1.512263894E0,4.713860512E0,8.269595146E0
3.908771623E0,1.488335729E0,4.737788677E0,8.240880966E0
3.910890477E0,1.445264935E0,4.756931305E0,8.207381248E0
3.913009331E0,1.416550994E0,4.790431023E0,8.169096947E0
3.915128185E0,1.383051515E0,4.785645485E0,8.135597229E0
3.917247040E0,1.354337573E0,4.800002098E0,8.116454124E0
3.919365842E0,1.306481123E0,4.823930264E0,8.063812256E0
3.921484696E0,1.292124271E0,4.809573650E0,8.054241180E0
3.923603550E0,1.215553880E0,4.790431023E0,8.087740898E0
3.925722404E0,1.158126116E0,4.795216560E0,8.173882484E0
3.927841258E0,1.086341500E0,4.785645485E0,8.274380684E0
3.929960060E0,1.009771109E0,4.790431023E0,8.427521706E0
3.932078915E0,9.379864931E-1,4.790431023E0,8.528019905E0
3.934197769E0,8.853443861E-1,4.785645485E0,8.652446747E0
3.936316623E0,8.374879360E-1,4.785645485E0,8.700303078E0
3.938435477E0,8.183453679E-1,4.814359188E0,8.733802795E0
3.940554331E0,8.422735929E-1,4.809573650E0,8.752944946E0
3.942673133E0,8.566305041E-1,4.819144726E0,8.772088051E0
3.944791987E0,8.853443861E-1,4.819144726E0,8.724231720E0
3.946910842E0,9.714859724E-1,4.828716278E0,8.738588333E0
3.949029696E0,1.033699393E0,4.852644444E0,8.714659691E0
3.951148550E0,1.110269666E0,4.890929699E0,8.671588898E0
3.953267352E0,1.177268744E0,4.905286312E0,8.671588898E0
3.955386206E0,1.272981644E0,4.938786030E0,8.623732567E0
3.957505060E0,1.325623751E0,4.943571568E0,8.590232849E0
3.959623915E0,1.359123230E0,4.938786030E0,8.551948547E0
3.961742769E0,1.383051515E0,4.967499733E0,8.484949112E0
3.963861623E0,1.387837172E0,4.948357105E0,8.422736168E0
3.965980425E0,1.387837172E0,4.948357105E0,8.398807526E0
3.968099279E0,1.402194023E0,4.938786030E0,8.331808090E0
3.970218133E0,1.392622828E0,4.914857864E0,8.307880402E0
3.972336987E0,1.416550994E0,4.886143684E0,8.279166222E0
3.974455842E0,1.411765337E0,4.871787071E0,8.288737297E0
3.976574696E0,1.363908887E0,4.857429981E0,8.293522835E0
3.978693498E0,1.320838094E0,4.838287354E0,8.317451477E0
3.980812352E0,1.253839016E0,4.819144726E0,8.355736732E0
3.982931206E0,1.205982566E0,4.814359188E0,8.365307808E0
3.985050060E0,1.167697430E0,4.780859470E0,8.355736732E0
3.987168915E0,1.124626637E0,4.785645485E0,8.360522270E0
3.989287717E0,1.091127157E0,4.785645485E0,8.360522270E0
3.991406571E0,1.043270707E0,4.771288395E0,8.336593628E0
3.993525425E0,1.033699393E0,4.780859470E0,8.322237015E0
3.995644279E0,1.048056364E0,4.747360229E0,8.307880402E0
3.997763133E0,1.038485050E0,4.737788677E0,8.317451477E0
3.999881935E0,1.043270707E0,4.718646049E0,8.336593628E0
4.002000790E0,1.052842021E0,4.713860512E0,8.389236450E0
4.004119644E0,1.067198873E0,4.723432064E0,8.461020470E0
4.006238498E0,1.076770186E0,4.742574692E0,8.499305725E0
4.008357352E0,1.100698471E0,4.728217602E0,8.504091263E0
4.010476206E0,1.129412293E0,4.737788677E0,8.504091263E0
4.012595060E0,1.129412293E0,4.733003139E0,8.494520187E0
4.014713862E0,1.129412293E0,4.742574692E0,8.484949112E0
4.016832717E0,1.162911773E0,4.728217602E0,8.446663857E0
4.018951571E0,1.186840057E0,4.723432064E0,8.427521706E0
4.021070425E0,1.186840057E0,4.733003139E0,8.403593063E0
4.023189227E0,1.186840057E0,4.756931305E0,8.374878883E0
4.025308081E0,1.210768223E0,4.752145767E0,8.350951195E0
4.027426935E0,1.234696507E0,4.776073933E0,8.312665939E0
4.029545790E0,1.249053478E0,4.828716278E0,8.269595146E0
4.031664644E0,1.258624673E0,4.847858906E0,8.221738815E0
4.033783498E0,1.272981644E0,4.871787071E0,8.173882484E0
4.035902300E0,1.282552958E0,4.895715237E0,8.140382767E0
4.038021154E0,1.258624673E0,4.900500774E0,8.106883049E0
4.040140008E0,1.249053478E0,4.929214478E0,8.087740898E0
4.042258862E0,1.220339537E0,4.934000492E0,8.063812256E0
4.044377717E0,1.172483087E0,4.977071285E0,8.059026718E0
4.046496571E0,1.148554921E0,4.986642361E0,8.063812256E0
4.048615373E0,1.086341500E0,5.010570526E0,8.054241180E0
4.050734227E0,1.038485050E0,5.044070244E0,8.039883614E0
4.052853081E0,1.019342422E0,5.024927616E0,8.020741463E0
4.054971935E0,1.009771109E0,5.024927616E0,8.001599312E0
4.057090790E0,1.076770186E0,5.015356064E0,8.015955925E0
4.059209644E0,1.071984529E0,5.000999451E0,8.035098076E0
4.061328446E0,1.048056364E0,4.981856823E0,8.020741463E0
4.063447300E0,1.339980721E0,5.034498692E0,8.212167740E0
4.065566154E0,1.521835208E0,4.991427898E0,8.298309326E0
4.067685008E0,1.354337573E0,4.953142643E0,8.298309326E0
4.069803862E0,1.124626637E0,4.957928658E0,8.293522835E0
4.071922665E0,9.284151793E-1,4.943571568E0,8.283951759E0
4.074041519E0,8.279166222E-1,4.900500774E0,8.283951759E0
4.076160373E0,7.800601721E-1,4.876572609E0,8.331808090E0
4.078279227E0,7.513462901E-1,4.833501816E0,8.374878883E0
4.080398081E0,6.891329288E-1,4.795216560E0,8.384450912E0
4.082516883E0,7.369893789E-1,4.780859470E0,8.389236450E0
4.084635790E0,7.609176040E-1,4.752145767E0,8.417949677E0
4.086754592E0,7.896314859E-1,4.766502857E0,8.456234932E0
4.088873446E0,8.374879360E-1,4.780859470E0,8.475378036E0
4.090992300E0,5.742774606E-1,5.278566837E0,8.518448830E0
4.093111154E0,5.934200287E-1,5.321637630E0,8.461020470E0
4.095230008E0,5.790630579E-1,5.240281582E0,8.465806961E0
4.097348810E0,6.125625968E-1,5.168497086E0,8.422736168E0
4.099467665E0,7.465606928E-1,5.010570526E0,8.417949677E0
4.101586519E0,8.901300430E-1,4.881358147E0,8.427521706E0
4.103705373E0,1.043270707E0,4.785645485E0,8.441878319E0
4.105824227E0,1.129412293E0,4.689932346E0,8.494520187E0
4.107943029E0,1.138983607E0,4.632504463E0,8.542376518E0
4.110061883E0,1.134197950E0,4.579862595E0,8.609375954E0
4.112180737E0,1.095912814E0,4.536791801E0,8.657232285E0
4.114299592E0,1.038485050E0,4.546362877E0,8.705088615E0
4.116418446E0,9.284151793E-1,4.637290478E0,8.724231720E0
4.118537300E0,7.226324677E-1,4.809573650E0,8.681160927E0
4.120656102E0,5.694918036E-1,4.914857864E0,8.642875671E0
4.122774956E0,5.359922647E-1,4.876572609E0,8.590232849E0
4.124893810E0,5.790630579E-1,4.838287354E0,8.580661774E0
4.127012665E0,6.029912829E-1,4.795216560E0,8.508877754E0
4.129131519E0,7.226324677E-1,4.838287354E0,8.470592499E0
4.131250321E0,7.178468108E-1,4.833501816E0,8.413164139E0
4.133369175E0,7.034898400E-1,4.838287354E0,8.350951195E0
4.135488029E0,7.322037220E-1,4.867001057E0,8.317451477E0
4.137606883E0,7.609176040E-1,4.828716278E0,8.269595146E0
4.139725737E0,7.322037220E-1,4.804787636E0,8.216953278E0
4.141844592E0,8.087740541E-1,4.800002098E0,8.226524353E0
4.143963446E0,8.805587292E-1,4.790431023E0,8.226524353E0
4.146082248E0,8.901300430E-1,4.776073933E0,8.226524353E0
4.148201102E0,8.949156404E-1,4.790431023E0,8.250452042E0
4.150319956E0,9.379864931E-1,4.809573650E0,8.274380684E0
4.152438810E0,8.901300430E-1,4.785645485E0,8.279166222E0
4.154557612E0,7.848458290E-1,4.800002098E0,8.298309326E0
4.156676467E0,7.944171429E-1,4.857429981E0,8.336593628E0
4.158795321E0,7.561319470E-1,4.881358147E0,8.312665939E0
4.160914175E0,7.082754970E-1,4.948357105E0,8.264809608E0
4.163033029E0,6.412764788E-1,5.034498692E0,8.193024635E0
4.165151883E0,5.934200287E-1,5.096712112E0,8.116454124E0
4.167270737E0,5.264210105E-1,5.115854740E0,8.001599312E0
4.169389540E0,5.790630579E-1,5.134997368E0,7.934599876E0
4.171508394E0,5.742774606E-1,5.111069202E0,7.838887215E0
4.173627248E0,6.317051649E-1,5.082355499E0,7.810173035E0
4.175746102E0,9.619147182E-1,4.857429981E0,7.762316704E0
4.177864956E0,1.378265858E0,4.465006828E0,7.671389580E0
4.179983758E0,1.292124271E0,4.417150497E0,7.915457249E0
4.182102612E0,8.566305041E-1,4.689932346E0,7.953742504E0
4.184221467E0,5.168496966E-1,5.072783947E0,7.925028801E0
4.186340321E0,2.919243574E-1,5.206781864E0,7.905886173E0
4.188459175E0,1.914258152E-1,5.139782906E0,7.987242222E0
4.190577977E0,1.770688742E-1,5.015356064E0,8.082955360E0
4.192696831E0,2.584248483E-1,4.934000492E0,8.073383331E0
4.194815685E0,3.397808075E-1,4.919643402E0,8.035098076E0
4.196934540E0,3.637090325E-1,5.029713154E0,8.020741463E0
4.199053394E0,3.924229145E-1,5.206781864E0,8.015955925E0
4.201172248E0,4.019941986E-1,5.407779217E0,8.054241180E0
4.203291102E0,3.541377485E-1,5.556134224E0,8.068597794E0
4.205409904E0,4.019941986E-1,5.651846886E0,8.059026718E0
4.207528758E0,5.216353536E-1,5.694917679E0,8.063812256E0
4.209647612E0,6.795616150E-1,5.690132141E0,8.063812256E0
4.211766467E0,7.657032609E-1,5.656632900E0,8.097311974E0
4.213885321E0,8.087740541E-1,5.647061348E0,8.121239662E0
4.216004123E0,9.379864931E-1,5.656632900E0,8.102097511E0
4.218122977E0,1.067198873E0,5.675775528E0,8.082955360E0
4.220241831E0,1.129412293E0,5.766702652E0,8.102097511E0
4.222360685E0,1.100698471E0,5.828916073E0,8.121239662E0
4.224479540E0,1.091127157E0,5.785845280E0,8.159524918E0
4.226598394E0,1.057627559E0,5.675775528E0,8.183453560E0
4.228717196E0,1.019342422E0,5.627918720E0,8.236095428E0
4.230836050E0,1.019342422E0,5.589633465E0,8.279166222E0
4.232954904E0,9.236295223E-1,5.594419479E0,8.341380119E0
4.235073758E0,8.566305041E-1,5.623133183E0,8.327022552E0
4.237192612E0,9.044869542E-1,5.632704735E0,8.283951759E0
4.239311467E0,9.762716293E-1,5.608776093E0,8.250452042E0
4.241430269E0,9.332008362E-1,5.546562672E0,8.245666504E0
4.243549123E0,9.954141974E-1,5.517848969E0,8.173882484E0
4.245667977E0,9.714859724E-1,5.527420521E0,8.140382767E0
4.247786779E0,9.667003751E-1,5.517848969E0,8.164310455E0
4.249905685E0,9.332008362E-1,5.551348686E0,8.154739380E0
4.252024487E0,9.379864931E-1,5.637490273E0,8.130811691E0
4.254143342E0,9.427721500E-1,5.666203976E0,8.121239662E0
4.256262196E0,9.954141974E-1,5.718846321E0,8.097311974E0
4.258381050E0,1.081555843E0,5.690132141E0,8.092526436E0
4.260499904E0,1.095912814E0,5.632704735E0,8.082955360E0
4.262618758E0,1.100698471E0,5.618347645E0,8.073383331E0
4.264737560E0,1.071984529E0,5.613562107E0,8.030312538E0
4.266856415E0,1.033699393E0,5.642275810E0,7.963313580E0
4.268975269E0,1.062413216E0,5.694917679E0,7.905886173E0
4.271094123E0,1.138983607E0,5.752345562E0,7.891529083E0
4.273212977E0,1.095912814E0,5.800201893E0,7.862815380E0
4.275331831E0,1.014556766E0,5.833701611E0,7.858029366E0
4.277450685E0,1.019342422E0,5.886343479E0,7.838887215E0
4.279569487E0,9.236295223E-1,5.895915031E0,7.848458290E0
4.281688342E0,8.709874153E-1,5.910272121E0,7.834101200E0
4.283807196E0,8.662018180E-1,5.943771362E0,7.786244869E0
4.285926050E0,9.188438654E-1,5.943771362E0,7.762316704E0
4.288044852E0,8.662018180E-1,5.929414749E0,7.747959614E0
4.290163706E0,8.709874153E-1,5.972485542E0,7.690532207E0
4.292282560E0,7.657032609E-1,6.025127411E0,7.613961697E0
4.294401415E0,7.322037220E-1,6.230910301E0,7.575676441E0
4.296520529E0,7.657032609E-1,6.187839508E0,7.494320393E0
4.298639123E0,5.838487148E-1,6.345765591E0,7.537391186E0
4.300757977E0,4.833501875E-1,6.269195557E0,7.494320393E0
4.302876779E0,4.689932466E-1,6.273981094E0,7.393822193E0
4.304995633E0,4.737788737E-1,6.259624004E0,7.274180889E0
4.307114487E0,5.407779217E-1,6.250052929E0,7.154539585E0
4.309233342E0,5.934200287E-1,6.254838467E0,7.054041386E0
4.311352196E0,5.886343718E-1,6.259624004E0,6.972685337E0
4.313470998E0,6.077769399E-1,6.307480335E0,6.848258495E0
4.315589852E0,6.460621357E-1,6.340980053E0,6.800402164E0
4.317708706E0,6.125625968E-1,6.384050846E0,6.747759819E0
4.319827560E0,5.647061467E-1,6.508477688E0,6.695117950E0
4.321946415E0,5.120640397E-1,6.604190350E0,6.656832695E0
4.324065269E0,5.503492355E-1,6.594619274E0,6.599404812E0
4.326184071E0,6.364908218E-1,6.565905571E0,6.594619274E0
4.328302925E0,6.460621357E-1,6.503692150E0,6.604190350E0
4.330421779E0,5.742774606E-1,6.465406895E0,6.537191391E0
4.332540633E0,6.221339107E-1,6.446264267E0,6.446264267E0
4.334659487E0,7.226324677E-1,6.427121639E0,6.441478729E0
4.336778342E0,6.939185858E-1,6.427121639E0,6.441478729E0
4.338897144E0,6.604190469E-1,6.479763508E0,6.431907177E0
4.341015998E0,6.029912829E-1,6.513263226E0,6.412764549E0
4.343134852E0,5.838487148E-1,6.532405853E0,6.384050846E0
4.345253706E0,5.694918036E-1,6.565905571E0,6.369693756E0
4.347372560E0,5.599204898E-1,6.589833736E0,6.340980053E0
4.349491362E0,5.503492355E-1,6.666403770E0,6.317051888E0
4.351610217E0,5.551348329E-1,6.719046116E0,6.273981094E0
4.353729071E0,5.503492355E-1,6.776473522E0,6.216553211E0
4.355847925E0,5.838487148E-1,6.814758778E0,6.173482418E0
4.357966779E0,5.982056856E-1,6.862615108E0,6.139982700E0
4.360085581E0,6.269195080E-1,6.900900364E0,6.087340832E0
4.362204435E0,6.077769399E-1,6.934400082E0,6.034698486E0
4.364323290E0,6.508477330E-1,6.953542709E0,5.967699528E0
4.366442144E0,6.317051649E-1,6.953542709E0,5.915057659E0
4.368560998E0,6.412764788E-1,6.958328247E0,5.852844238E0
4.370679852E0,6.460621357E-1,6.953542709E0,5.809773445E0
4.372798602E0,6.508477330E-1,6.934400082E0,5.742774487E0
4.374917508E0,6.508477330E-1,6.915257454E0,5.694917679E0
4.377036362E0,6.412764788E-1,6.905686378E0,5.623133183E0
4.379155217E0,6.412764788E-1,6.900900364E0,5.613562107E0
4.381274071E0,6.125625968E-1,6.910471916E0,5.603990555E0
4.383392925E0,6.029912829E-1,6.920042992E0,5.589633465E0
4.385511727E0,5.742774606E-1,6.939185619E0,5.632704735E0
4.387630581E0,5.503492355E-1,6.924828529E0,5.661418438E0
4.389749435E0,5.503492355E-1,6.943971157E0,5.699703693E0
4.391868290E0,5.312066078E-1,6.948757172E0,5.747560024E0
4.393987144E0,5.359922647E-1,6.958328247E0,5.809773445E0
4.396105998E0,5.551348329E-1,6.967899323E0,5.852844238E0
4.398224800E0,5.838487148E-1,6.967899323E0,5.934200287E0
4.400343654E0,6.221339107E-1,6.977470875E0,5.991627693E0
4.402462508E0,6.556333899E-1,6.948757172E0,6.072983742E0
4.404581362E0,6.987041831E-1,6.972685337E0,6.173482418E0
4.406700217E0,7.274180651E-1,6.972685337E0,6.302694798E0
4.408819019E0,7.800601721E-1,6.953542709E0,6.446264267E0
4.410937873E0,8.231309652E-1,6.948757172E0,6.594619274E0
4.413056727E0,8.709874153E-1,6.939185619E0,6.728617191E0
4.415175581E0,9.140582681E-1,6.920042992E0,6.824330330E0
4.417294435E0,9.284151793E-1,6.910471916E0,6.953542709E0
4.419413290E0,8.901300430E-1,7.006184578E0,7.087540627E0
4.421532144E0,9.236295223E-1,6.996613503E0,7.183253765E0
4.423650946E0,9.379864931E-1,6.953542709E0,7.269395351E0
4.425769800E0,9.714859724E-1,6.915257454E0,7.350750923E0
4.427888654E0,1.009771109E0,7.097112179E0,7.465606689E0
4.430007508E0,1.028913736E0,6.943971157E0,7.489534855E0
4.432126362E0,9.954141974E-1,6.833901405E0,7.527820110E0
4.434245165E0,1.024128079E0,6.723831654E0,7.546962738E0
4.436364019E0,1.110269666E0,6.656832695E0,7.585247993E0
4.438482873E0,1.191625714E0,6.594619274E0,7.599604607E0
4.440601727E0,1.282552958E0,6.556334019E0,7.633104324E0
4.442720581E0,1.344766378E0,6.513263226E0,7.623532772E0
4.444839435E0,1.383051515E0,6.527620316E0,7.652246952E0
4.446958237E0,1.397408366E0,6.508477688E0,7.728816986E0
4.449077092E0,1.373480201E0,6.503692150E0,7.757531166E0
4.451195946E0,1.344766378E0,6.470192432E0,7.781459332E0
4.453314800E0,1.311266780E0,6.455835342E0,7.795815945E0
4.455433654E0,1.296909928E0,6.441478729E0,7.795815945E0
4.457552508E0,1.277767301E0,6.417550564E0,7.800601959E0
4.459671310E0,1.296909928E0,6.407979012E0,7.776673794E0
4.461790165E0,1.306481123E0,6.427121639E0,7.776673794E0
4.463909019E0,1.320838094E0,6.451049805E0,7.771887779E0
4.466027873E0,1.316052437E0,6.436692715E0,7.757531166E0
4.468146727E0,1.282552958E0,6.460621357E0,7.752745152E0
4.470265581E0,1.272981644E0,6.489335060E0,7.738388538E0
4.472384383E0,1.253839016E0,6.498906136E0,7.700103283E0
4.474503237E0,1.220339537E0,6.532405853E0,7.671389580E0
4.476622092E0,1.205982566E0,6.556334019E0,7.657032490E0
4.478740946E0,1.182054400E0,6.565905571E0,7.637889862E0
4.480859800E0,1.162911773E0,6.585047722E0,7.637889862E0
4.482978602E0,1.134197950E0,6.599404812E0,7.609176159E0
4.485097404E0,1.110269666E0,6.623332977E0,7.599604607E0
4.487216310E0,1.086341500E0,6.647261143E0,7.537391186E0
4.489335165E0,1.076770186E0,6.671189308E0,7.494320393E0
4.491454019E0,1.067198873E0,6.685546398E0,7.446464062E0
4.493572873E0,1.067198873E0,6.699903488E0,7.422535896E0
4.495691727E0,1.091127157E0,6.699903488E0,7.365108013E0
4.497810529E0,1.086341500E0,6.714260101E0,7.326822758E0
4.499929383E0,1.095912814E0,6.699903488E0,7.293323517E0
4.502048237E0,1.100698471E0,6.690331936E0,7.259823799E0
4.504167092E0,1.067198873E0,6.690331936E0,7.235895634E0
4.506285946E0,1.071984529E0,6.680760860E0,7.202396393E0
4.508404748E0,1.028913736E0,6.661618233E0,7.197610378E0
4.510523602E0,1.019342422E0,6.642475605E0,7.159325123E0
4.512642456E0,1.000199914E0,6.637690067E0,7.149754047E0
4.514761310E0,9.906286001E-1,6.628118515E0,7.130611420E0
4.516880165E0,9.810572863E-1,6.628118515E0,7.111468792E0
4.518999019E0,9.714859724E-1,6.632904530E0,7.149754047E0
4.521117821E0,9.714859724E-1,6.623332977E0,7.173682213E0
4.523236675E0,9.762716293E-1,6.642475605E0,7.221538544E0
4.525355529E0,9.714859724E-1,6.656832695E0,7.269395351E0
4.527474383E0,9.714859724E-1,6.652047157E0,7.317251682E0
4.529593237E0,9.762716293E-1,6.671189308E0,7.369893551E0
4.531712092E0,9.858429432E-1,6.680760860E0,7.408178806E0
