"Time (s)","Acceleration x (m/s^2)","Acceleration y (m/s^2)","Acceleration z (m/s^2)"
9.829276900E-2,3.916839123E0,5.405890942E0,7.183669090E0
1.032927690E-1,3.884549141E0,5.408952236E0,7.198882103E0
1.082927690E-1,3.849194050E0,5.412518978E0,7.215173244E0
1.132927690E-1,3.810144186E0,5.412364006E0,7.235985756E0
1.182927690E-1,3.765954733E0,5.398322582E0,7.269530773E0
1.232927690E-1,3.727218628E0,5.385135651E0,7.299215317E0
1.282927690E-1,3.691607952E0,5.375920773E0,7.324062824E0
1.332927690E-1,3.657843113E0,5.371029377E0,7.344563961E0
1.382927690E-1,3.624572515E0,5.371016979E0,7.361049175E0
1.432927690E-1,3.591416121E0,5.375468731E0,7.374039173E0
1.482927690E-1,3.557791948E0,5.382557869E0,7.385159492E0
1.532927690E-1,3.524585009E0,5.391924381E0,7.394243240E0
1.582927690E-1,3.491570473E0,5.401830673E0,7.402672291E0
1.632927690E-1,3.458496332E0,5.411741257E0,7.410954475E0
1.682927690E-1,3.425316811E0,5.420363426E0,7.420057774E0
1.732927690E-1,3.392543316E0,5.427660942E0,7.429773331E0
1.782927690E-1,3.360064030E0,5.432769775E0,7.440791130E0
1.832927690E-1,3.327230692E0,5.436004162E0,7.453172207E0
1.882927690E-1,3.294645786E0,5.437073708E0,7.466855526E0
1.932927690E-1,3.263168097E0,5.436405182E0,7.481151104E0
1.982927690E-1,3.232265472E0,5.434453964E0,7.495968819E0
2.032927690E-1,3.202186823E0,5.431566715E0,7.510957241E0
2.082927690E-1,3.172518730E0,5.428319454E0,7.525878906E0
2.132927690E-1,3.143257141E0,5.425245762E0,7.540359974E0
2.182927690E-1,3.114223003E0,5.422276020E0,7.554529667E0
2.232927690E-1,3.085391045E0,5.419661522E0,7.568224907E0
2.282927690E-1,3.056685686E0,5.417635918E0,7.581311703E0
2.332927690E-1,3.028660536E0,5.416064739E0,7.593671322E0
2.382927690E-1,3.001628399E0,5.414816380E0,7.605286121E0
2.432927690E-1,2.975637913E0,5.413744926E0,7.616254330E0
2.482927690E-1,2.950489759E0,5.412320614E0,7.627043724E0
2.532927690E-1,2.926179886E0,5.411011219E0,7.637330532E0
2.582927690E-1,2.902640104E0,5.409941196E0,7.647065163E0
2.632927690E-1,2.879275799E0,5.409109592E0,7.656481266E0
2.682927690E-1,2.855255365E0,5.408380508E0,7.665985107E0
2.732927690E-1,2.829290628E0,5.407834053E0,7.675990582E0
2.782927690E-1,2.801827669E0,5.407226086E0,7.686484814E0
2.832927690E-1,2.773544312E0,5.405927181E0,7.697648048E0
2.882927690E-1,2.745015383E0,5.403714180E0,7.709420204E0
2.932927690E-1,2.716395617E0,5.400907993E0,7.721514702E0
2.982927690E-1,2.688454628E0,5.397089005E0,7.733952999E0
3.032927690E-1,2.661183596E0,5.392391205E0,7.746652126E0
3.082927690E-1,2.634628534E0,5.386776447E0,7.759623051E0
3.132927690E-1,2.608395576E0,5.380503178E0,7.772827148E0
3.182927690E-1,2.582162857E0,5.373672009E0,7.786300182E0
3.232927690E-1,2.555664062E0,5.366299629E0,7.800115108E0
3.282927690E-1,2.528934002E0,5.358613014E0,7.814099789E0
3.332927690E-1,2.502800941E0,5.350493431E0,7.828064919E0
3.382927690E-1,2.476722479E0,5.341947079E0,7.842182636E0
3.432927690E-1,2.450101137E0,5.333190918E0,7.856492043E0
3.482927690E-1,2.423249245E0,5.324601173E0,7.870634079E0
3.532927690E-1,2.395889521E0,5.316175938E0,7.884692669E0
3.582927690E-1,2.368088961E0,5.308108330E0,7.898514271E0
3.632927690E-1,2.340320587E0,5.300547123E0,7.911858082E0
3.682927690E-1,2.311876059E0,5.293656349E0,7.924823761E0
3.732927690E-1,2.282197714E0,5.287121296E0,7.937777042E0
3.782927690E-1,2.251141787E0,5.280836582E0,7.950818062E0
3.832927690E-1,2.219459534E0,5.274376392E0,7.964003563E0
3.882927690E-1,2.186962366E0,5.267576694E0,7.977481842E0
3.932927690E-1,2.153578043E0,5.259925365E0,7.991600990E0
3.982927690E-1,2.119706392E0,5.251672745E0,8.006071091E0
4.032927690E-1,2.086689472E0,5.242664337E0,8.020635605E0
4.082927690E-1,2.052539587E0,5.232892036E0,8.035814285E0
4.132927690E-1,2.018766880E0,5.222470284E0,8.051135063E0
4.182927690E-1,1.985849380E0,5.211462498E0,8.066439629E0
4.232927690E-1,1.953143239E0,5.199883461E0,8.081881523E0
4.282927690E-1,1.918652058E0,5.187643528E0,8.097994804E0
4.332927690E-1,1.884047270E0,5.175109863E0,8.114123344E0
4.382927690E-1,1.849996567E0,5.162019253E0,8.130280495E0
4.432927690E-1,1.816442966E0,5.148082733E0,8.146667480E0
4.482927690E-1,1.783439279E0,5.133735180E0,8.162994385E0
4.532927690E-1,1.750795245E0,5.119204044E0,8.179172516E0
4.582927690E-1,1.718517184E0,5.105032444E0,8.194859505E0
4.632927690E-1,1.686752915E0,5.091613293E0,8.209794998E0
4.682927690E-1,1.656087279E0,5.079017639E0,8.223828316E0
4.732927690E-1,1.626604319E0,5.067216396E0,8.236980438E0
4.782927690E-1,1.598455906E0,5.056051254E0,8.249342918E0
4.832927690E-1,1.571282864E0,5.045596600E0,8.260957718E0
4.882927690E-1,1.545065761E0,5.035753727E0,8.271901131E0
4.932927690E-1,1.519873381E0,5.026564121E0,8.282150269E0
4.982927690E-1,1.495923638E0,5.017893314E0,8.291764259E0
5.032927690E-1,1.473338962E0,5.009964466E0,8.300597191E0
5.082927690E-1,1.451698899E0,5.002501011E0,8.308907509E0
5.132927690E-1,1.430691481E0,4.995529175E0,8.316741943E0
5.182927690E-1,1.409937024E0,4.989034176E0,8.324181557E0
5.232927690E-1,1.389122486E0,4.982817650E0,8.331401825E0
5.282927690E-1,1.368340731E0,4.976882935E0,8.338385582E0
5.332927690E-1,1.347729683E0,4.971277714E0,8.345082283E0
5.382927690E-1,1.327493787E0,4.965780735E0,8.351595879E0
5.432927690E-1,1.308178067E0,4.960432053E0,8.357820511E0
5.482927690E-1,1.289865375E0,4.955287933E0,8.363717079E0
5.532927690E-1,1.272225022E0,4.950661182E0,8.369156837E0
5.582927690E-1,1.255313396E0,4.946565628E0,8.374131203E0
5.632927690E-1,1.239433169E0,4.943167686E0,8.378501892E0
5.682927690E-1,1.224737406E0,4.940466881E0,8.382255554E0
5.732927690E-1,1.211420178E0,4.938605309E0,8.385286331E0
5.782927690E-1,1.199655414E0,4.937472820E0,8.387643814E0
5.832927690E-1,1.189051747E0,4.936837673E0,8.389528275E0
5.882927690E-1,1.179605603E0,4.936810493E0,8.390877724E0
5.932927690E-1,1.171398401E0,4.937335968E0,8.391716957E0
5.982927690E-1,1.164466023E0,4.938270569E0,8.392131805E0
6.032927690E-1,1.158936739E0,4.939319134E0,8.392280579E0
6.082927690E-1,1.154781461E0,4.940587997E0,8.392107010E0
6.132927690E-1,1.151853681E0,4.942073345E0,8.391634941E0
6.182927690E-1,1.149940729E0,4.943797112E0,8.390881538E0
6.232927690E-1,1.148829579E0,4.945587158E0,8.389979362E0
6.282927690E-1,1.148584723E0,4.947509289E0,8.388878822E0
6.332927690E-1,1.149152040E0,4.949454784E0,8.387653351E0
6.382927690E-1,1.150534630E0,4.951537609E0,8.386235237E0
6.432927690E-1,1.152703643E0,4.954139709E0,8.384400368E0
6.482927690E-1,1.155676484E0,4.957188606E0,8.382188797E0
6.532927690E-1,1.159539223E0,4.960752010E0,8.379546165E0
6.582927690E-1,1.164176822E0,4.964808941E0,8.376500130E0
6.632927690E-1,1.169764876E0,4.969407558E0,8.372993469E0
6.682927690E-1,1.175827146E0,4.974472523E0,8.369135857E0
6.732927690E-1,1.181348443E0,4.980183601E0,8.364960670E0
6.782927690E-1,1.187711120E0,4.986680031E0,8.360188484E0
6.832927690E-1,1.194901586E0,4.993791103E0,8.354917526E0
6.882927690E-1,1.202270627E0,5.001704216E0,8.349125862E0
6.932927690E-1,1.209654093E0,5.009993076E0,8.343087196E0
6.982927690E-1,1.217093825E0,5.018971920E0,8.336605072E0
7.032927690E-1,1.227287054E0,5.027999878E0,8.329668999E0
7.082927690E-1,1.238345265E0,5.037951946E0,8.322013855E0
7.132927690E-1,1.248490214E0,5.049758911E0,8.313338280E0
7.182927690E-1,1.257636428E0,5.062545776E0,8.304177284E0
7.232927690E-1,1.265752435E0,5.075996876E0,8.294728279E0
7.282927690E-1,1.273488998E0,5.089796543E0,8.285081863E0
7.332927690E-1,1.281905532E0,5.103861809E0,8.275126457E0
7.382927690E-1,1.291515827E0,5.117869377E0,8.264972687E0
7.432927690E-1,1.302193642E0,5.131556034E0,8.254805565E0
7.482927690E-1,1.313658714E0,5.144778728E0,8.244751930E0
7.532927690E-1,1.325421095E0,5.157586098E0,8.234862328E0
7.582927690E-1,1.336911798E0,5.170082569E0,8.225161552E0
7.632927690E-1,1.347503185E0,5.182148457E0,8.215835571E0
7.682927690E-1,1.356907487E0,5.193453789E0,8.207145691E0
7.732927690E-1,1.364548326E0,5.203955173E0,8.199222565E0
7.782927690E-1,1.370375633E0,5.213528633E0,8.192165375E0
7.832927690E-1,1.374466658E0,5.221947193E0,8.186116219E0
7.882927690E-1,1.377069354E0,5.229016781E0,8.181164742E0
7.932927690E-1,1.378985047E0,5.234930515E0,8.177058220E0
7.982927690E-1,1.380660415E0,5.239540577E0,8.173823357E0
8.032927690E-1,1.382245541E0,5.243019581E0,8.171322823E0
8.082927690E-1,1.384044766E0,5.245646954E0,8.169333458E0
8.132927690E-1,1.386280894E0,5.247396469E0,8.167829514E0
8.182927690E-1,1.389293194E0,5.248435497E0,8.166649818E0
8.232927690E-1,1.393390298E0,5.249103069E0,8.165523529E0
8.282927690E-1,1.398495793E0,5.249701023E0,8.164266586E0
8.332927690E-1,1.404212236E0,5.250530720E0,8.162750244E0
8.382927690E-1,1.410236478E0,5.251631260E0,8.161004066E0
8.432927690E-1,1.415891528E0,5.253321171E0,8.158936501E0
8.482927690E-1,1.420804620E0,5.255692005E0,8.156556129E0
8.532927690E-1,1.424965024E0,5.258912086E0,8.153753281E0
8.582927690E-1,1.428472877E0,5.262934685E0,8.150543213E0
8.632927690E-1,1.431483507E0,5.267676353E0,8.146951675E0
8.682927690E-1,1.434014440E0,5.272885799E0,8.143136024E0
8.732927690E-1,1.436046243E0,5.278524399E0,8.139122963E0
8.782927690E-1,1.437472939E0,5.284260273E0,8.135149002E0
8.832927690E-1,1.437968493E0,5.289710522E0,8.131518364E0
8.882927690E-1,1.437459350E0,5.294839382E0,8.128270149E0
8.932927690E-1,1.435981750E0,5.298994064E0,8.125823021E0
8.982927690E-1,1.433702469E0,5.302026749E0,8.124247551E0
9.032927690E-1,1.430835247E0,5.303980350E0,8.123476982E0
9.082927690E-1,1.427671790E0,5.304982185E0,8.123380661E0
9.132927690E-1,1.424470186E0,5.305162430E0,8.123824120E0
9.182927690E-1,1.421199441E0,5.304906845E0,8.124564171E0
9.232927690E-1,1.417601347E0,5.304552555E0,8.125423431E0
9.282927690E-1,1.413793445E0,5.304300785E0,8.126252174E0
9.332927690E-1,1.409933329E0,5.304399967E0,8.126857758E0
9.382927690E-1,1.406009078E0,5.304946423E0,8.127180099E0
9.432927690E-1,1.402293324E0,5.305695057E0,8.127334595E0
9.482927690E-1,1.399226308E0,5.306661129E0,8.127232552E0
9.532927690E-1,1.396772623E0,5.307927608E0,8.126827240E0
9.582927690E-1,1.395103574E0,5.309305668E0,8.126214027E0
9.632927690E-1,1.394451499E0,5.310907364E0,8.125278473E0
9.682927690E-1,1.395042062E0,5.312640190E0,8.124044418E0
9.732927690E-1,1.396973491E0,5.314617634E0,8.122419357E0
9.782927690E-1,1.400313497E0,5.316929817E0,8.120330811E0
9.832927690E-1,1.405009151E0,5.319698334E0,8.117706299E0
9.882927690E-1,1.410970926E0,5.322877407E0,8.114585876E0
9.932927690E-1,1.418231249E0,5.326380253E0,8.111021996E0
9.982927690E-1,1.426940203E0,5.330170631E0,8.107003212E0
1.003292769E0,1.437388659E0,5.334011078E0,8.102630615E0
1.008292769E0,1.449569106E0,5.337891102E0,8.097904205E0
1.013292769E0,1.463591576E0,5.341395378E0,8.093070030E0
1.018292769E0,1.479003310E0,5.344612122E0,8.088143349E0
1.023292769E0,1.495804429E0,5.347469807E0,8.083164215E0
1.028292769E0,1.514129639E0,5.350111485E0,8.078001022E0
1.033292769E0,1.533913016E0,5.352687836E0,8.072561264E0
1.038292769E0,1.554835558E0,5.355447769E0,8.066724777E0
1.043292769E0,1.576848269E0,5.358538628E0,8.060396194E0
1.048292769E0,1.599534154E0,5.362032413E0,8.053600311E0
1.053292769E0,1.622385502E0,5.365823269E0,8.046502113E0
1.058292769E0,1.644786716E0,5.369549751E0,8.039464951E0
1.063292769E0,1.666142583E0,5.373004436E0,8.032756805E0
1.068292769E0,1.686110735E0,5.375934124E0,8.026627541E0
1.073292769E0,1.704510093E0,5.377948284E0,8.021389961E0
1.078292769E0,1.721054316E0,5.378715038E0,8.017343521E0
1.083292769E0,1.735583305E0,5.378141403E0,8.014595032E0
1.088292769E0,1.747852564E0,5.375859261E0,8.013459206E0
1.093292769E0,1.757725239E0,5.371978283E0,8.013902664E0
1.098292769E0,1.764819860E0,5.366446972E0,8.016049385E0
1.103292769E0,1.769348264E0,5.359333038E0,8.019810677E0
1.108292769E0,1.771546602E0,5.350581169E0,8.025165558E0
1.113292769E0,1.771751046E0,5.340505600E0,8.031828880E0
1.118292769E0,1.770261168E0,5.329427242E0,8.039512634E0
1.123292769E0,1.767215967E0,5.317677975E0,8.047958374E0
1.128292769E0,1.763182521E0,5.305548668E0,8.056843758E0
1.133292769E0,1.758532763E0,5.293343067E0,8.065882683E0
1.138292769E0,1.753703475E0,5.281142712E0,8.074927330E0
1.143292769E0,1.748742580E0,5.269300938E0,8.083734512E0
1.148292769E0,1.743953347E0,5.258164406E0,8.092015266E0
1.153292769E0,1.739416957E0,5.247952461E0,8.099617004E0
1.158292769E0,1.735346437E0,5.238829613E0,8.106393814E0
1.163292769E0,1.732009768E0,5.230491161E0,8.112488747E0
1.168292769E0,1.729658246E0,5.223040104E0,8.117789268E0
1.173292769E0,1.728549719E0,5.216536999E0,8.122206688E0
1.178292769E0,1.728626847E0,5.211036205E0,8.125720978E0
1.183292769E0,1.729783773E0,5.206607342E0,8.128314018E0
1.188292769E0,1.732058883E0,5.203236103E0,8.129987717E0
1.193292769E0,1.735341787E0,5.200913906E0,8.130773544E0
1.198292769E0,1.739432096E0,5.199614048E0,8.130729675E0
1.203292769E0,1.743914247E0,5.199506283E0,8.129838943E0
1.208292769E0,1.748498321E0,5.200465679E0,8.128240585E0
1.213292769E0,1.753099203E0,5.202342987E0,8.126048088E0
1.218292769E0,1.757538915E0,5.205135345E0,8.123300552E0
1.223292769E0,1.761763334E0,5.208642006E0,8.120137215E0
1.228292769E0,1.765633941E0,5.212707996E0,8.116686821E0
1.233292769E0,1.769060254E0,5.216987133E0,8.113189697E0
1.238292769E0,1.771779895E0,5.221336842E0,8.109797478E0
1.243292769E0,1.773769617E0,5.225704670E0,8.106549263E0
1.248292769E0,1.774967551E0,5.229926109E0,8.103563309E0
1.253292769E0,1.775512576E0,5.233576298E0,8.101087570E0
1.258292769E0,1.775410533E0,5.236759186E0,8.099052429E0
1.263292769E0,1.774864435E0,5.239089012E0,8.097665787E0
1.268292769E0,1.773791194E0,5.240453720E0,8.097018242E0
1.273292769E0,1.772319078E0,5.240980148E0,8.096999168E0
1.278292769E0,1.770473242E0,5.240594387E0,8.097652435E0
1.283292769E0,1.768406391E0,5.239460945E0,8.098837852E0
1.288292769E0,1.766049862E0,5.237628460E0,8.100537300E0
1.293292769E0,1.763370752E0,5.235379219E0,8.102573395E0
1.298292769E0,1.760462880E0,5.232694149E0,8.104941368E0
1.303292769E0,1.757288218E0,5.229836464E0,8.107473373E0
1.308292769E0,1.753830314E0,5.226922512E0,8.110101700E0
1.313292769E0,1.750437617E0,5.224194527E0,8.112592697E0
1.318292769E0,1.747294545E0,5.221642971E0,8.114911079E0
1.323292769E0,1.744691253E0,5.219453812E0,8.116880417E0
1.328292769E0,1.742740750E0,5.217666149E0,8.118449211E0
1.333292769E0,1.741497517E0,5.216476440E0,8.119479179E0
1.338292769E0,1.740611911E0,5.215967655E0,8.119997025E0
1.343292769E0,1.739895821E0,5.216040134E0,8.120102882E0
1.348292769E0,1.739105344E0,5.216494560E0,8.119979858E0
1.353292769E0,1.738218665E0,5.217100143E0,8.119781494E0
1.358292769E0,1.737185836E0,5.217648506E0,8.119648933E0
1.363292769E0,1.735793233E0,5.218105793E0,8.119653702E0
1.368292769E0,1.734090805E0,5.218388081E0,8.119835854E0
1.373292769E0,1.732057452E0,5.218615055E0,8.120124817E0
1.378292769E0,1.729826808E0,5.218867779E0,8.120437622E0
1.383292769E0,1.727170110E0,5.219246387E0,8.120759964E0
1.388292769E0,1.723947763E0,5.219627857E0,8.121199608E0
1.393292769E0,1.720330596E0,5.220026016E0,8.121709824E0
1.398292769E0,1.716697812E0,5.220406532E0,8.122234344E0
1.403292769E0,1.713186383E0,5.220904827E0,8.122655869E0
1.408292769E0,1.709373474E0,5.221621990E0,8.122998238E0
1.413292769E0,1.705454111E0,5.222552776E0,8.123223305E0
1.418292769E0,1.701614022E0,5.223719597E0,8.123277664E0
1.423292769E0,1.698342919E0,5.225053310E0,8.123105049E0
1.428292769E0,1.695640683E0,5.226950169E0,8.122449875E0
1.433292769E0,1.693678617E0,5.229381561E0,8.121293068E0
1.438292769E0,1.692576528E0,5.232358932E0,8.119606018E0
1.443292769E0,1.692278266E0,5.235838413E0,8.117424011E0
1.448292769E0,1.692941904E0,5.239809990E0,8.114722252E0
1.453292769E0,1.694454789E0,5.244330883E0,8.111486435E0
1.458292769E0,1.696723223E0,5.249381065E0,8.107744217E0
1.463292769E0,1.699568033E0,5.255263329E0,8.103336334E0
1.468292769E0,1.702920198E0,5.262506962E0,8.097929955E0
1.473292769E0,1.706541419E0,5.271238327E0,8.091485977E0
1.478292769E0,1.709816933E0,5.281266689E0,8.084253311E0
1.483292769E0,1.712706089E0,5.292574406E0,8.076242447E0
1.488292769E0,1.715294957E0,5.304903030E0,8.067599297E0
1.493292769E0,1.717911482E0,5.317943573E0,8.058450699E0
1.498292769E0,1.720548391E0,5.331466675E0,8.048948288E0
1.503292769E0,1.723557711E0,5.345362186E0,8.039081573E0
1.508292769E0,1.727342486E0,5.359467506E0,8.028872490E0
1.513292769E0,1.731869102E0,5.373600006E0,8.018444061E0
1.518292769E0,1.736827970E0,5.387762547E0,8.007861137E0
1.523292769E0,1.742119908E0,5.401993752E0,7.997116566E0
1.528292769E0,1.747552037E0,5.415834427E0,7.986562729E0
1.533292769E0,1.752306938E0,5.428736687E0,7.976755142E0
1.538292769E0,1.755115867E0,5.440510273E0,7.968111515E0
1.543292769E0,1.760403991E0,5.452631474E0,7.958653927E0
1.548292769E0,1.767839313E0,5.465021610E0,7.948501587E0
1.553292769E0,1.776883960E0,5.477537632E0,7.937861919E0
1.558292769E0,1.787337780E0,5.490044117E0,7.926867962E0
1.563292769E0,1.799402356E0,5.502556801E0,7.915453911E0
1.568292769E0,1.813516736E0,5.515286922E0,7.903363705E0
1.573292769E0,1.829952717E0,5.528351784E0,7.890437126E0
1.578292769E0,1.849175811E0,5.541285038E0,7.876871109E0
1.583292769E0,1.869725347E0,5.554943562E0,7.862387180E0
1.588292769E0,1.890576243E0,5.568980217E0,7.847456455E0
1.593292769E0,1.910551310E0,5.583271980E0,7.832449436E0
1.598292769E0,1.929658890E0,5.597288132E0,7.817747116E0
1.603292769E0,1.948667288E0,5.611008167E0,7.803183556E0
1.608292769E0,1.966038704E0,5.624745369E0,7.788922787E0
1.613292769E0,1.978684664E0,5.638136864E0,7.776028156E0
1.618292769E0,1.987805605E0,5.649454117E0,7.765480995E0
1.623292769E0,1.998804688E0,5.658166885E0,7.756308556E0
1.628292769E0,2.010304451E0,5.665984631E0,7.747624874E0
1.633292769E0,2.020958662E0,5.673094273E0,7.739645481E0
1.638292769E0,2.031845570E0,5.678234100E0,7.733022690E0
1.643292769E0,2.043406487E0,5.681362152E0,7.727678299E0
1.648292769E0,2.050156116E0,5.682723522E0,7.724888325E0
1.653292769E0,2.046938896E0,5.682594299E0,7.725836754E0
1.658292769E0,2.038345575E0,5.681723595E0,7.728749275E0
1.663292769E0,2.026394367E0,5.681201458E0,7.732274055E0
1.668292769E0,2.014783144E0,5.680510521E0,7.735815525E0
1.673292769E0,2.006838083E0,5.678988934E0,7.738997459E0
1.678292769E0,2.004764557E0,5.676701546E0,7.741212845E0
1.683292769E0,2.009948492E0,5.673617363E0,7.742128849E0
1.688292769E0,2.022401810E0,5.670081139E0,7.741476059E0
1.693292769E0,2.040335894E0,5.666932106E0,7.739076138E0
1.698292769E0,2.060887814E0,5.665135860E0,7.734943390E0
1.703292769E0,2.081060648E0,5.665585041E0,7.729212284E0
1.708292769E0,2.099671602E0,5.668363571E0,7.722137451E0
1.713292769E0,2.116494656E0,5.673170567E0,7.714010715E0
1.718292769E0,2.132313013E0,5.679748535E0,7.704808235E0
1.723292769E0,2.149008274E0,5.687077045E0,7.694758892E0
1.728292769E0,2.167973280E0,5.694739819E0,7.683763027E0
1.733292769E0,2.189856768E0,5.702293873E0,7.671946526E0
1.738292769E0,2.214970589E0,5.709616184E0,7.659280300E0
1.743292769E0,2.241800308E0,5.717123508E0,7.645863056E0
1.748292769E0,2.269345284E0,5.725415230E0,7.631519318E0
1.753292769E0,2.296234369E0,5.734966278E0,7.616288662E0
1.758292769E0,2.320591450E0,5.746621132E0,7.600104332E0
1.763292769E0,2.341034889E0,5.760474205E0,7.583329678E0
1.768292769E0,2.358861923E0,5.775762081E0,7.566156387E0
1.773292769E0,2.375316381E0,5.791374207E0,7.549055576E0
1.778292769E0,2.391159058E0,5.806387901E0,7.532504082E0
1.783292769E0,2.407071352E0,5.820129871E0,7.516813278E0
1.788292769E0,2.423400640E0,5.832101822E0,7.502273560E0
1.793292769E0,2.439606905E0,5.842439175E0,7.488965988E0
1.798292769E0,2.454399824E0,5.851135731E0,7.477334023E0
1.803292769E0,2.466964006E0,5.858573437E0,7.467368126E0
1.808292769E0,2.476575136E0,5.865168571E0,7.459005833E0
1.813292769E0,2.483588457E0,5.871159077E0,7.451956749E0
1.818292769E0,2.489216328E0,5.876397610E0,7.445947170E0
1.823292769E0,2.494863272E0,5.880887032E0,7.440512180E0
1.828292769E0,2.501516104E0,5.884919643E0,7.435087681E0
1.833292769E0,2.509103775E0,5.889001369E0,7.429297447E0
1.838292769E0,2.517426491E0,5.893545151E0,7.422874928E0
1.843292769E0,2.526934862E0,5.899163246E0,7.415176868E0
1.848292769E0,2.538236856E0,5.905746937E0,7.406072140E0
1.853292769E0,2.551311493E0,5.913559437E0,7.395337582E0
1.858292769E0,2.565670729E0,5.922715187E0,7.383032322E0
1.863292769E0,2.581335068E0,5.932854176E0,7.369419098E0
1.868292769E0,2.598740578E0,5.943360806E0,7.354821682E0
1.873292769E0,2.617376089E0,5.953923225E0,7.339655399E0
1.878292769E0,2.636430264E0,5.964204311E0,7.324471951E0
1.883292769E0,2.655533552E0,5.973778725E0,7.309753418E0
1.888292769E0,2.674623013E0,5.982303619E0,7.295808315E0
1.893292769E0,2.693489790E0,5.989839554E0,7.282672405E0
1.898292769E0,2.712299824E0,5.996292114E0,7.270371914E0
1.903292769E0,2.731146097E0,6.002079010E0,7.258532047E0
1.908292769E0,2.749270201E0,6.007946968E0,7.246824265E0
1.913292769E0,2.766426563E0,6.014484882E0,7.234862804E0
1.918292769E0,2.782792568E0,6.021808624E0,7.222483635E0
1.923292769E0,2.798062325E0,6.030235767E0,7.209541798E0
1.928292769E0,2.810379267E0,6.040177822E0,7.196416855E0
1.933292769E0,2.820276022E0,6.050370693E0,7.183971882E0
1.938292769E0,2.831035137E0,6.059431076E0,7.172093868E0
1.943292769E0,2.844268560E0,6.066758633E0,7.160653114E0
1.948292769E0,2.858519316E0,6.072036743E0,7.150497913E0
1.953292769E0,2.870486259E0,6.075167656E0,7.143041134E0
1.958292769E0,2.877269506E0,6.075968742E0,7.139629841E0
1.963292769E0,2.878087044E0,6.074240685E0,7.140770912E0
1.968292769E0,2.873030901E0,6.069683552E0,7.146678448E0
1.973292769E0,2.863958120E0,6.061922073E0,7.156899929E0
1.978292769E0,2.850668430E0,6.051205635E0,7.171260834E0
1.983292769E0,2.838664770E0,6.038054943E0,7.187089443E0
1.988292769E0,2.827600479E0,6.022934437E0,7.204118729E0
1.993292769E0,2.818248510E0,6.007005215E0,7.221062183E0
1.998292769E0,2.810011148E0,5.997151852E0,7.232455254E0
2.003292769E0,2.804132223E0,5.989880562E0,7.240757465E0
2.008292769E0,2.800980806E0,5.985592842E0,7.245521545E0
2.013292769E0,2.800707579E0,5.984477043E0,7.246547699E0
2.018292769E0,2.802606583E0,5.986342907E0,7.244271755E0
2.023292769E0,2.806221485E0,5.990864277E0,7.239132881E0
2.028292769E0,2.811030149E0,5.997407436E0,7.231846333E0
2.033292769E0,2.816111565E0,6.005283356E0,7.223328114E0
2.038292769E0,2.820846558E0,6.013527870E0,7.214616776E0
2.043292769E0,2.824920654E0,6.021238327E0,7.206588268E0
2.048292769E0,2.827870607E0,6.027675152E0,7.200047016E0
2.053292769E0,2.828952551E0,6.032536030E0,7.195549011E0
2.058292769E0,2.827334642E0,6.035753727E0,7.193487167E0
2.063292769E0,2.822435856E0,6.037217140E0,7.194181919E0
2.068292769E0,2.814432144E0,6.036843777E0,7.197630405E0
2.073292769E0,2.803781748E0,6.034553528E0,7.203704357E0
2.078292769E0,2.791326284E0,6.030303955E0,7.212094784E0
2.083292769E0,2.778208494E0,6.024208069E0,7.222248077E0
2.088292769E0,2.765063763E0,6.016703129E0,7.233540058E0
2.093292769E0,2.752099276E0,6.008297443E0,7.245460033E0
2.098292769E0,2.739625931E0,5.999609947E0,7.257376194E0
2.103292769E0,2.728303194E0,5.990982533E0,7.268761158E0
2.108292769E0,2.718668938E0,5.982630730E0,7.279241562E0
2.113292769E0,2.710598707E0,5.974614620E0,7.288828373E0
2.118292769E0,2.704166412E0,5.966755867E0,7.297650814E0
2.123292769E0,2.699190855E0,5.958994865E0,7.305829048E0
2.128292769E0,2.695178509E0,5.951497555E0,7.313417912E0
2.133292769E0,2.691763878E0,5.944377422E0,7.320462704E0
2.138292769E0,2.688616276E0,5.937777996E0,7.326971054E0
2.143292769E0,2.685400724E0,5.931855202E0,7.332946301E0
2.148292769E0,2.682029247E0,5.926653385E0,7.338384628E0
2.153292769E0,2.678384781E0,5.922149658E0,7.343349934E0
2.158292769E0,2.674540281E0,5.918259621E0,7.347886086E0
2.163292769E0,2.670622826E0,5.914857388E0,7.352048874E0
2.168292769E0,2.666609526E0,5.911861420E0,7.355914593E0
2.173292769E0,2.662546158E0,5.909126759E0,7.359583378E0
2.178292769E0,2.658133030E0,5.906472206E0,7.363307476E0
2.183292769E0,2.653043985E0,5.903564930E0,7.367473602E0
2.188292769E0,2.645981789E0,5.902032852E0,7.371239662E0
2.193292769E0,2.637966394E0,5.900102139E0,7.375657082E0
2.198292769E0,2.629132271E0,5.897501945E0,7.380890369E0
2.203292769E0,2.619848728E0,5.893970013E0,7.387008190E0
2.208292769E0,2.610273123E0,5.889160633E0,7.394230843E0
2.213292769E0,2.599872351E0,5.883368492E0,7.402502060E0
2.218292769E0,2.588589668E0,5.877106667E0,7.411424160E0
2.223292769E0,2.576293945E0,5.870303154E0,7.421094418E0
2.228292769E0,2.563264608E0,5.863199711E0,7.431213856E0
2.233292769E0,2.549957037E0,5.855821609E0,7.441602707E0
2.238292769E0,2.536714554E0,5.848452568E0,7.451917648E0
2.243292769E0,2.523666382E0,5.841411114E0,7.461863518E0
2.248292769E0,2.510677338E0,5.834947586E0,7.471296310E0
2.253292769E0,2.497192860E0,5.829204082E0,7.480292797E0
2.258292769E0,2.482715845E0,5.823894978E0,7.489242077E0
2.263292769E0,2.466937065E0,5.819019318E0,7.498240948E0
2.268292769E0,2.449859142E0,5.814594746E0,7.507267475E0
2.273292769E0,2.431846380E0,5.810863018E0,7.516008377E0
2.278292769E0,2.413044453E0,5.808104992E0,7.524196148E0
2.283292769E0,2.393566132E0,5.806056976E0,7.531994343E0
2.288292769E0,2.373058558E0,5.804337025E0,7.539803982E0
2.293292769E0,2.351612091E0,5.802321434E0,7.548070908E0
2.298292769E0,2.329122543E0,5.799800396E0,7.556976795E0
2.303292769E0,2.305439949E0,5.796742916E0,7.566576958E0
2.308292769E0,2.280951262E0,5.793339729E0,7.576599121E0
2.313292769E0,2.256321430E0,5.789711952E0,7.586740494E0
2.318292769E0,2.231520414E0,5.786024094E0,7.596883774E0
2.323292769E0,2.206477165E0,5.782305717E0,7.607022285E0
2.328292769E0,2.181171656E0,5.778767586E0,7.617002487E0
2.333292769E0,2.155820370E0,5.775369644E0,7.626790524E0
2.338292769E0,2.130559683E0,5.772268295E0,7.636230469E0
2.343292769E0,2.105481148E0,5.769429684E0,7.645326614E0
2.348292769E0,2.080379963E0,5.766591072E0,7.654334545E0
2.353292769E0,2.054927588E0,5.763545513E0,7.663497448E0
2.358292769E0,2.029423714E0,5.760110855E0,7.672871590E0
2.363292769E0,2.004221916E0,5.756127834E0,7.682478905E0
2.368292769E0,1.979508877E0,5.751667976E0,7.692220211E0
2.373292769E0,1.954628706E0,5.746686459E0,7.702298641E0
2.378292769E0,1.929819465E0,5.741306305E0,7.712560654E0
2.383292769E0,1.905800819E0,5.735720158E0,7.722682476E0
2.388292769E0,1.883248568E0,5.730495930E0,7.732087135E0
2.393292769E0,1.863589764E0,5.726083755E0,7.740115166E0
2.398292769E0,1.848527670E0,5.722753048E0,7.746188164E0
2.403292769E0,1.839064479E0,5.720742702E0,7.749924660E0
2.408292769E0,1.835578203E0,5.720051765E0,7.751260757E0
2.413292769E0,1.837304950E0,5.720669270E0,7.750396252E0
2.418292769E0,1.840868235E0,5.723081589E0,7.747768402E0
2.423292769E0,1.848515987E0,5.726205826E0,7.743638039E0
2.428292769E0,1.859669209E0,5.729489326E0,7.738538265E0
2.433292769E0,1.873598814E0,5.732529163E0,7.732923508E0
2.438292769E0,1.889677167E0,5.735135078E0,7.727077484E0
2.443292769E0,1.907246232E0,5.737191677E0,7.721232891E0
2.448292769E0,1.925862432E0,5.738817692E0,7.715400696E0
2.453292769E0,1.943877101E0,5.740116596E0,7.709915161E0
2.458292769E0,1.959940195E0,5.740860462E0,7.705292702E0
2.463292769E0,1.975005865E0,5.742486000E0,7.700233459E0
2.468292769E0,1.989072442E0,5.744299412E0,7.695259094E0
2.473292769E0,2.001809359E0,5.745171547E0,7.691303253E0
2.478292769E0,2.012336016E0,5.745115757E0,7.688596249E0
2.483292769E0,2.020668507E0,5.744567394E0,7.686821938E0
2.488292769E0,2.027593851E0,5.743412495E0,7.685861588E0
2.493292769E0,2.033935547E0,5.741497993E0,7.685616016E0
2.498292769E0,2.039920568E0,5.739223480E0,7.685729027E0
2.503292769E0,2.045033216E0,5.736110210E0,7.686693668E0
2.508292769E0,2.049968243E0,5.732118607E0,7.688357353E0
2.513292769E0,2.054662466E0,5.727302551E0,7.690692902E0
2.518292769E0,2.058901310E0,5.721811295E0,7.693645477E0
2.523292769E0,2.062477112E0,5.715661526E0,7.697257042E0
2.528292769E0,2.065587044E0,5.708667278E0,7.701613426E0
2.533292769E0,2.068298817E0,5.700407505E0,7.707002640E0
2.538292769E0,2.070259571E0,5.691015244E0,7.713414192E0
2.543292769E0,2.071110725E0,5.680383682E0,7.721018791E0
2.548292769E0,2.070738792E0,5.668608665E0,7.729767323E0
2.553292769E0,2.068967342E0,5.655659676E0,7.739720345E0
2.558292769E0,2.065782785E0,5.641510963E0,7.750888824E0
2.563292769E0,2.061552286E0,5.626301289E0,7.763062000E0
2.568292769E0,2.055962563E0,5.609951496E0,7.776365280E0
2.573292769E0,2.048484325E0,5.592312813E0,7.791028976E0
2.578292769E0,2.039111614E0,5.573722839E0,7.806793213E0
2.583292769E0,2.027931452E0,5.554440498E0,7.823431015E0
2.588292769E0,2.014271259E0,5.535299778E0,7.840507984E0
2.593292769E0,1.998804450E0,5.515599251E0,7.858328819E0
2.598292769E0,1.983098984E0,5.495010853E0,7.876709938E0
2.603292769E0,1.967100263E0,5.473897457E0,7.895400524E0
2.608292769E0,1.950797439E0,5.452494621E0,7.914232731E0
2.613292769E0,1.934578419E0,5.430890560E0,7.933045387E0
2.618292769E0,1.918053269E0,5.409585953E0,7.951593399E0
2.623292769E0,1.900324225E0,5.388876915E0,7.969891071E0
2.628292769E0,1.880905509E0,5.369066238E0,7.987848282E0
2.633292769E0,1.860337496E0,5.350341320E0,8.005208969E0
2.638292769E0,1.838946104E0,5.332766056E0,8.021862030E0
2.643292769E0,1.816808581E0,5.316642284E0,8.037592888E0
2.648292769E0,1.794231415E0,5.301748753E0,8.052489281E0
2.653292769E0,1.772035003E0,5.288142681E0,8.066338539E0
2.658292769E0,1.751143694E0,5.275701046E0,8.079039574E0
2.663292769E0,1.731734991E0,5.264419556E0,8.090573311E0
2.668292769E0,1.713644385E0,5.254066467E0,8.101147652E0
2.673292769E0,1.697014928E0,5.244513988E0,8.110832214E0
2.678292769E0,1.682044983E0,5.235606194E0,8.119700432E0
2.683292769E0,1.669380903E0,5.227506161E0,8.127529144E0
2.688292769E0,1.659351826E0,5.220424652E0,8.134132385E0
2.693292769E0,1.652171493E0,5.214435101E0,8.139432907E0
2.698292769E0,1.648237228E0,5.209441185E0,8.143427849E0
2.703292769E0,1.647228718E0,5.205278397E0,8.146294594E0
2.708292769E0,1.648629308E0,5.201880455E0,8.148180962E0
2.713292769E0,1.651892304E0,5.199165821E0,8.149251938E0
2.718292769E0,1.656658649E0,5.197024345E0,8.149650574E0
2.723292769E0,1.663094878E0,5.195306301E0,8.149435043E0
2.728292769E0,1.671204686E0,5.193834782E0,8.148715019E0
2.733292769E0,1.680628777E0,5.192726135E0,8.147482872E0
2.738292769E0,1.691139936E0,5.191882133E0,8.145844460E0
2.743292769E0,1.702446461E0,5.191005230E0,8.144048691E0
2.748292769E0,1.713905692E0,5.190115929E0,8.142210960E0
2.753292769E0,1.725330353E0,5.188878059E0,8.140586853E0
2.758292769E0,1.736402035E0,5.187250614E0,8.139269829E0
2.763292769E0,1.745547652E0,5.185454845E0,8.138458252E0
2.768292769E0,1.750799656E0,5.184225559E0,8.138113976E0
2.773292769E0,1.752237320E0,5.184071541E0,8.137902260E0
2.778292769E0,1.751637101E0,5.184559345E0,8.137720108E0
2.783292769E0,1.752035260E0,5.180830479E0,8.140008926E0
2.788292769E0,1.761151075E0,5.175448895E0,8.141466141E0
2.793292769E0,1.783345461E0,5.171023846E0,8.139445305E0
2.798292769E0,1.812819004E0,5.171022892E0,8.132932663E0
2.803292769E0,1.844833374E0,5.174979210E0,8.123211861E0
2.808292769E0,1.880642295E0,5.180682182E0,8.111357689E0
2.813292769E0,1.922567248E0,5.186750412E0,8.097638130E0
2.818292769E0,1.970049262E0,5.193070889E0,8.082160950E0
2.823292769E0,2.019463301E0,5.199739456E0,8.065659523E0
2.828292769E0,2.068070650E0,5.206326962E0,8.049076080E0
2.833292769E0,2.113818407E0,5.212244987E0,8.033347130E0
2.838292769E0,2.156052828E0,5.216879845E0,8.019100189E0
2.843292769E0,2.194640398E0,5.219865322E0,8.006681442E0
2.848292769E0,2.228821278E0,5.221247196E0,7.996331692E0
2.853292769E0,2.257786274E0,5.220273495E0,7.988837242E0
2.858292769E0,2.281672239E0,5.216470718E0,7.984534740E0
2.863292769E0,2.300826073E0,5.209931374E0,7.983307838E0
2.868292769E0,2.312130690E0,5.202599525E0,7.984822750E0
2.873292769E0,2.314008951E0,5.195302010E0,7.989028931E0
2.878292769E0,2.311783075E0,5.186418533E0,7.995443344E0
2.883292769E0,2.306488752E0,5.176864624E0,8.003160477E0
2.888292769E0,2.296322346E0,5.168319225E0,8.011601448E0
2.893292769E0,2.282047033E0,5.160256386E0,8.020872116E0
2.898292769E0,2.264812231E0,5.152045727E0,8.031030655E0
2.903292769E0,2.244529486E0,5.144494534E0,8.041557312E0
2.908292769E0,2.220913887E0,5.137882710E0,8.052334785E0
2.913292769E0,2.194612503E0,5.131862640E0,8.063376427E0
2.918292769E0,2.166673183E0,5.126293659E0,8.074467659E0
2.923292769E0,2.137360334E0,5.121154785E0,8.085533142E0
2.928292769E0,2.106024027E0,5.115771294E0,8.097156525E0
2.933292769E0,2.072604656E0,5.109489918E0,8.109735489E0
2.938292769E0,2.037175894E0,5.102207184E0,8.123286247E0
2.943292769E0,2.000477314E0,5.093895435E0,8.137610435E0
2.948292769E0,1.963777423E0,5.084642887E0,8.152322769E0
2.953292769E0,1.928226233E0,5.074474335E0,8.167131424E0
2.958292769E0,1.894480586E0,5.063630104E0,8.181746483E0
2.963292769E0,1.862881541E0,5.052194595E0,8.196059227E0
2.968292769E0,1.834148645E0,5.040183067E0,8.209923744E0
2.973292769E0,1.813504457E0,5.027110100E0,8.222515106E0
2.978292769E0,1.801939368E0,5.013117790E0,8.233592987E0
2.983292769E0,1.795917034E0,4.998661041E0,8.243692398E0
2.988292769E0,1.788965583E0,4.984113216E0,8.254005432E0
2.993292769E0,1.779607296E0,4.969298840E0,8.264953613E0
2.998292769E0,1.767877936E0,4.954820156E0,8.276156425E0
3.003292769E0,1.754626870E0,4.941339970E0,8.287028313E0
3.008292769E0,1.740686774E0,4.928861141E0,8.297392845E0
3.013292769E0,1.727443933E0,4.916741848E0,8.307344437E0
3.018292769E0,1.714514375E0,4.904683590E0,8.317145348E0
3.023292769E0,1.701338887E0,4.892489433E0,8.327027321E0
3.028292769E0,1.688539863E0,4.880037308E0,8.336933136E0
3.033292769E0,1.676726699E0,4.867660046E0,8.346548080E0
3.038292769E0,1.665806532E0,4.855403423E0,8.355868340E0
3.043292769E0,1.655725241E0,4.843292236E0,8.364895821E0
3.048292769E0,1.646317244E0,4.831509113E0,8.373561859E0
3.053292769E0,1.637302518E0,4.820205688E0,8.381839752E0
3.058292769E0,1.628109932E0,4.809425831E0,8.389819145E0
3.063292769E0,1.618533134E0,4.799713135E0,8.397231102E0
3.068292769E0,1.609003901E0,4.791351318E0,8.403835297E0
3.073292769E0,1.599577546E0,4.784239769E0,8.409684181E0
3.078292769E0,1.590348005E0,4.778324127E0,8.414796829E0
3.083292769E0,1.582076669E0,4.773865223E0,8.418885231E0
3.088292769E0,1.575669169E0,4.770934105E0,8.421748161E0
3.093292769E0,1.571208715E0,4.769495010E0,8.423397064E0
3.098292769E0,1.568601727E0,4.769495964E0,8.423881531E0
3.103292769E0,1.568074942E0,4.770808220E0,8.423236847E0
3.108292769E0,1.570326209E0,4.773122787E0,8.421506882E0
3.113292769E0,1.575309157E0,4.775894165E0,8.419003487E0
3.118292769E0,1.582327962E0,4.778713703E0,8.416087151E0
3.123292769E0,1.590855479E0,4.781301498E0,8.413008690E0
3.128292769E0,1.600372314E0,4.783639908E0,8.409873962E0
3.133292769E0,1.610120893E0,4.785335541E0,8.407049179E0
3.138292769E0,1.619560599E0,4.786401749E0,8.404628754E0
3.143292769E0,1.628305078E0,4.786694050E0,8.402771950E0
3.148292769E0,1.636277676E0,4.786097527E0,8.401561737E0
3.153292769E0,1.643365741E0,4.784627914E0,8.401016235E0
3.158292769E0,1.649510384E0,4.782024384E0,8.401294708E0
3.163292769E0,1.654445767E0,4.778329849E0,8.402426720E0
3.168292769E0,1.658084154E0,4.773458481E0,8.404478073E0
3.173292769E0,1.661537766E0,4.767853260E0,8.406976700E0
3.178292769E0,1.663748264E0,4.761281013E0,8.410263062E0
3.183292769E0,1.664739370E0,4.753717899E0,8.414344788E0
3.188292769E0,1.664498568E0,4.745302200E0,8.419141769E0
3.193292769E0,1.663052201E0,4.735969543E0,8.424680710E0
3.198292769E0,1.660646796E0,4.726034164E0,8.430731773E0
3.203292769E0,1.657318354E0,4.715622425E0,8.437213898E0
3.208292769E0,1.653360963E0,4.705019474E0,8.443907738E0
3.213292769E0,1.648992658E0,4.694505215E0,8.450611115E0
3.218292769E0,1.644131660E0,4.684199333E0,8.457274437E0
3.223292769E0,1.638465643E0,4.674419403E0,8.463783264E0
3.228292769E0,1.632389903E0,4.665447712E0,8.469903946E0
3.233292769E0,1.626441836E0,4.657528400E0,8.475404739E0
3.238292769E0,1.621137977E0,4.650546074E0,8.480254173E0
3.243292769E0,1.616742969E0,4.644541264E0,8.484383583E0
3.248292769E0,1.613314152E0,4.639530182E0,8.487777710E0
3.253292769E0,1.610894203E0,4.635487556E0,8.490445137E0
3.258292769E0,1.609450221E0,4.632491589E0,8.492353439E0
3.263292769E0,1.607783198E0,4.629374504E0,8.494369507E0
3.268292769E0,1.607022882E0,4.627479076E0,8.495546341E0
3.273292769E0,1.607018471E0,4.626977921E0,8.495820045E0
3.278292769E0,1.607443094E0,4.627607822E0,8.495396614E0
3.283292769E0,1.608050108E0,4.628962517E0,8.494543076E0
3.288292769E0,1.609168172E0,4.630687237E0,8.493391037E0
3.293292769E0,1.610772729E0,4.632867336E0,8.491898537E0
3.298292769E0,1.612584352E0,4.635285378E0,8.490234375E0
3.303292769E0,1.614423037E0,4.637983799E0,8.488411903E0
3.308292769E0,1.616445303E0,4.640756607E0,8.486511230E0
3.313292769E0,1.618438840E0,4.643643856E0,8.484552383E0
3.318292769E0,1.620452642E0,4.646501541E0,8.482603073E0
3.323292769E0,1.622160316E0,4.649296761E0,8.480744362E0
3.328292769E0,1.623611450E0,4.651989460E0,8.478989601E0
3.333292769E0,1.624648452E0,4.654511929E0,8.477405548E0
3.338292769E0,1.625718832E0,4.656822205E0,8.475933075E0
3.343292769E0,1.627044201E0,4.658994198E0,8.474484444E0
3.348292769E0,1.628548026E0,4.661000729E0,8.473092079E0
3.353292769E0,1.629550338E0,4.662877083E0,8.471867561E0
3.358292769E0,1.629725695E0,4.664606571E0,8.470881462E0
3.363292769E0,1.628819942E0,4.666414738E0,8.470060349E0
3.368292769E0,1.626983404E0,4.668555737E0,8.469232559E0
3.373292769E0,1.624424696E0,4.671262741E0,8.468231201E0
3.378292769E0,1.621305704E0,4.674653053E0,8.466958046E0
3.383292769E0,1.617856860E0,4.678562641E0,8.465457916E0
3.388292769E0,1.613903165E0,4.682940960E0,8.463790894E0
3.393292769E0,1.609042645E0,4.687782764E0,8.462036133E0
3.398292769E0,1.602988124E0,4.692733765E0,8.460441589E0
3.403292769E0,1.595783353E0,4.697828293E0,8.458975792E0
3.408292769E0,1.587875605E0,4.702799320E0,8.457701683E0
3.413292769E0,1.579494119E0,4.707682610E0,8.456553459E0
3.418292769E0,1.570798397E0,4.712546825E0,8.455465317E0
3.423292769E0,1.562101483E0,4.717291832E0,8.454428673E0
3.428292769E0,1.553630710E0,4.721955776E0,8.453388214E0
3.433292769E0,1.545400858E0,4.726588249E0,8.452306747E0
3.438292769E0,1.537206650E0,4.731240273E0,8.451197624E0
3.443292769E0,1.529074907E0,4.735902786E0,8.450062752E0
3.448292769E0,1.520806313E0,4.740701199E0,8.448862076E0
3.453292769E0,1.512440920E0,4.745620251E0,8.447602272E0
3.458292769E0,1.503683567E0,4.750491619E0,8.446428299E0
3.463292769E0,1.494422674E0,4.755418777E0,8.445299149E0
3.468292769E0,1.484706640E0,4.760053635E0,8.444401741E0
3.473292769E0,1.484118819E0,4.760721207E0,8.444128990E0
3.478292769E0,1.489341021E0,4.760364532E0,8.443410873E0
3.483292769E0,1.487662077E0,4.760287762E0,8.443750381E0
3.488292769E0,1.476138234E0,4.760594845E0,8.445598602E0
3.493292769E0,1.464619517E0,4.762579918E0,8.446485519E0
3.498292769E0,1.458987951E0,4.766099930E0,8.445474625E0
3.503292769E0,1.458927631E0,4.769827843E0,8.443380356E0
3.508292769E0,1.460847020E0,4.772438049E0,8.441571236E0
3.513292769E0,1.461834669E0,4.773538589E0,8.440779686E0
3.518292769E0,1.460649967E0,4.773160458E0,8.441199303E0
3.523292769E0,1.457284570E0,4.771541595E0,8.442694664E0
3.528292769E0,1.452670813E0,4.768906116E0,8.444977760E0
3.533292769E0,1.448112607E0,4.765262604E0,8.447817802E0
3.538292769E0,1.444879889E0,4.760755539E0,8.450912476E0
3.543292769E0,1.443529606E0,4.755712032E0,8.453982353E0
3.548292769E0,1.444230556E0,4.750054836E0,8.457042694E0
3.553292769E0,1.446275115E0,4.743805408E0,8.460200310E0
3.558292769E0,1.449536085E0,4.736960411E0,8.463476181E0
3.563292769E0,1.454288721E0,4.730205536E0,8.466439247E0
3.568292769E0,1.461168289E0,4.724029064E0,8.468703270E0
3.573292769E0,1.470384240E0,4.718782425E0,8.470032692E0
3.578292769E0,1.481542706E0,4.714618683E0,8.470406532E0
3.583292769E0,1.493736267E0,4.711918354E0,8.469767570E0
3.588292769E0,1.506853938E0,4.710711002E0,8.468115807E0
3.593292769E0,1.520416021E0,4.711111069E0,8.465467453E0
3.598292769E0,1.534145117E0,4.713120461E0,8.461872101E0
3.603292769E0,1.547631383E0,4.716449261E0,8.457560539E0
3.608292769E0,1.561164021E0,4.720821857E0,8.452632904E0
3.613292769E0,1.574844360E0,4.725538254E0,8.447458267E0
3.618292769E0,1.588209271E0,4.730025768E0,8.442441940E0
3.623292769E0,1.600746036E0,4.734278679E0,8.437688828E0
3.628292769E0,1.613531709E0,4.738512516E0,8.432875633E0
3.633292769E0,1.627920270E0,4.742136002E0,8.428072929E0
3.638292769E0,1.642185450E0,4.745454788E0,8.423436165E0
3.643292769E0,1.655863047E0,4.748875141E0,8.418828964E0
3.648292769E0,1.670475841E0,4.752235889E0,8.414045334E0
3.653292769E0,1.685626626E0,4.754850864E0,8.409544945E0
3.658292769E0,1.698808074E0,4.757139206E0,8.405596733E0
3.663292769E0,1.710329533E0,4.759384632E0,8.401988983E0
3.668292769E0,1.722349763E0,4.761117458E0,8.398551941E0
3.673292769E0,1.732912183E0,4.762608051E0,8.395532608E0
3.678292769E0,1.740938902E0,4.764411449E0,8.392848969E0
3.683292769E0,1.747796059E0,4.766603470E0,8.390177727E0
3.688292769E0,1.755121231E0,4.768525600E0,8.387556076E0
3.693292769E0,1.764667034E0,4.768890381E0,8.385346413E0
3.698292769E0,1.774758458E0,4.767831326E0,8.383817673E0
3.703292769E0,1.782719493E0,4.766522884E0,8.382872581E0
3.708292769E0,1.790206671E0,4.765005589E0,8.382141113E0
3.713292769E0,1.799103498E0,4.763401985E0,8.381146431E0
3.718292769E0,1.811096668E0,4.760990620E0,8.379933357E0
3.723292769E0,1.824547172E0,4.758037567E0,8.378692627E0
3.728292769E0,1.835298896E0,4.756500721E0,8.377217293E0
3.733292769E0,1.843553305E0,4.756442547E0,8.375437737E0
3.738292769E0,1.850375056E0,4.757023811E0,8.373603821E0
3.743292769E0,1.855616570E0,4.757457733E0,8.372195244E0
3.748292769E0,1.859145880E0,4.757301331E0,8.371501923E0
3.753292769E0,1.861384034E0,4.756337166E0,8.371552467E0
3.758292769E0,1.863011599E0,4.754332066E0,8.372329712E0
3.763292769E0,1.864853382E0,4.751127243E0,8.373739243E0
3.768292769E0,1.869013786E0,4.747053146E0,8.375121117E0
3.773292769E0,1.877116203E0,4.741972923E0,8.376187325E0
3.778292769E0,1.886980534E0,4.737784863E0,8.376340866E0
3.783292769E0,1.896363735E0,4.736158848E0,8.375142097E0
3.788292769E0,1.901142955E0,4.737987041E0,8.373023987E0
3.793292769E0,1.903119326E0,4.741786480E0,8.370424271E0
3.798292769E0,1.902866960E0,4.746485710E0,8.367816925E0
3.803292769E0,1.900888920E0,4.751826286E0,8.365235329E0
3.808292769E0,1.898038030E0,4.757792473E0,8.362490654E0
3.813292769E0,1.895341277E0,4.764413357E0,8.359333038E0
3.818292769E0,1.892924547E0,4.771957397E0,8.355576515E0
3.823292769E0,1.890395761E0,4.780573845E0,8.351222038E0
3.828292769E0,1.886632442E0,4.790009022E0,8.346665382E0
3.833292769E0,1.881331444E0,4.799769878E0,8.342252731E0
3.838292769E0,1.873854756E0,4.809319973E0,8.338434219E0
3.843292769E0,1.864057779E0,4.818487167E0,8.335338593E0
3.848292769E0,1.851903677E0,4.827095032E0,8.333066940E0
3.853292769E0,1.837599635E0,4.834533691E0,8.331920624E0
3.858292769E0,1.821775079E0,4.840471745E0,8.331947327E0
3.863292769E0,1.805032372E0,4.845259666E0,8.332808495E0
3.868292769E0,1.787552953E0,4.849166393E0,8.334303856E0
3.873292769E0,1.769119143E0,4.852481842E0,8.336307526E0
3.878292769E0,1.749513626E0,4.855050564E0,8.338950157E0
3.883292769E0,1.728482723E0,4.856807232E0,8.342311859E0
3.888292769E0,1.705973268E0,4.857965469E0,8.346269608E0
3.893292769E0,1.682117581E0,4.858598232E0,8.350742340E0
3.898292769E0,1.656928658E0,4.858897209E0,8.355603218E0
3.903292769E0,1.630692482E0,4.859159946E0,8.360609055E0
3.908292769E0,1.603244901E0,4.859582901E0,8.365671158E0
3.913292769E0,1.574493647E0,4.860386848E0,8.370663643E0
3.918292769E0,1.544442177E0,4.861349106E0,8.375700951E0
3.923292769E0,1.513296723E0,4.862157822E0,8.380915642E0
3.928292769E0,1.481682897E0,4.861828327E0,8.386752129E0
3.933292769E0,1.450754642E0,4.860138416E0,8.393136978E0
3.938292769E0,1.421432972E0,4.857751846E0,8.399534225E0
3.943292769E0,1.394376516E0,4.855606556E0,8.405306816E0
3.948292769E0,1.369716883E0,4.854233265E0,8.410153389E0
3.953292769E0,1.347651243E0,4.854052544E0,8.413822174E0
3.958292769E0,1.327733278E0,4.855202675E0,8.416324615E0
3.963292769E0,1.308467627E0,4.857560158E0,8.417981148E0
3.968292769E0,1.289008379E0,4.860960484E0,8.419020653E0
3.973292769E0,1.269541264E0,4.864913940E0,8.419695854E0
3.978292769E0,1.250438452E0,4.869043350E0,8.420166016E0
3.983292769E0,1.231595635E0,4.873112679E0,8.420589447E0
3.988292769E0,1.213322639E0,4.877303123E0,8.420816422E0
3.993292769E0,1.195614696E0,4.881718159E0,8.420791626E0
3.998292769E0,1.178619862E0,4.886147022E0,8.420618057E0
4.003292769E0,1.162878871E0,4.890210152E0,8.420448303E0
4.008292769E0,1.148584127E0,4.893789768E0,8.420330048E0
4.013292769E0,1.135464549E0,4.897328377E0,8.420052528E0
4.018292769E0,1.122846603E0,4.901144981E0,8.419524193E0
4.023292769E0,1.110443473E0,4.905243397E0,8.418781281E0
4.028292769E0,1.097632885E0,4.909952164E0,8.417716980E0
4.033292769E0,1.083959579E0,4.915666580E0,8.416152954E0
4.038292769E0,1.069036365E0,4.922260761E0,8.414208412E0
4.043292769E0,1.052573562E0,4.929314613E0,8.412153244E0
4.048292769E0,1.035017014E0,4.936716557E0,8.409991264E0
4.053292769E0,1.016797662E0,4.944188118E0,8.407823563E0
4.058292769E0,9.990032911E-1,4.951364994E0,8.405734062E0
4.063292769E0,9.827141762E-1,4.957938671E0,8.403779984E0
4.068292769E0,9.707891941E-1,4.963509083E0,8.401875496E0
4.073292769E0,9.556528330E-1,4.969417095E0,8.400120735E0
4.078292769E0,9.380893111E-1,4.975630760E0,8.398421288E0
4.083292769E0,9.199407101E-1,4.982289791E0,8.396479607E0
4.088292769E0,9.029354453E-1,4.989842892E0,8.393840790E0
4.093292769E0,8.858210444E-1,5.000855446E0,8.389108658E0
4.098292769E0,8.687283397E-1,5.013838768E0,8.383144379E0
4.103292769E0,8.547347188E-1,5.026433468E0,8.377039909E0
4.108292769E0,8.445461392E-1,5.038920879E0,8.370568275E0
4.113292769E0,8.364631534E-1,5.052031040E0,8.363473892E0
4.118292769E0,8.292717338E-1,5.067330360E0,8.354929924E0
4.123292769E0,8.216475844E-1,5.086258888E0,8.344174385E0
4.128292769E0,8.163504004E-1,5.106650829E0,8.332231522E0
4.133292769E0,8.143271208E-1,5.128798962E0,8.318814278E0
4.138292769E0,8.134617209E-1,5.152318478E0,8.304352760E0
4.143292769E0,8.128557205E-1,5.176638126E0,8.289274216E0
4.148292769E0,8.129698634E-1,5.201376915E0,8.273761749E0
4.153292769E0,8.135570884E-1,5.226543903E0,8.257829666E0
4.158292769E0,8.142990470E-1,5.252026558E0,8.241573334E0
4.163292769E0,8.164808154E-1,5.278349400E0,8.224522591E0
4.168292769E0,8.195704222E-1,5.305804729E0,8.206530571E0
4.173292769E0,8.241183162E-1,5.333339691E0,8.188205719E0
4.178292769E0,8.353551626E-1,5.358520985E0,8.170606613E0
4.183292769E0,8.492744565E-1,5.380379677E0,8.154790878E0
4.188292769E0,8.536648750E-1,5.406217098E0,8.137227058E0
4.193292769E0,8.557956219E-1,5.431540966E0,8.120121002E0
4.198292769E0,8.584160209E-1,5.457063675E0,8.102713585E0
4.203292769E0,8.603939414E-1,5.485249519E0,8.083449364E0
4.208292769E0,8.628797531E-1,5.515280247E0,8.062723160E0
4.213292769E0,8.678532839E-1,5.545268059E0,8.041593552E0
4.218292769E0,8.739212155E-1,5.575160980E0,8.020237923E0
4.223292769E0,8.810259104E-1,5.605858803E0,7.998032570E0
4.228292769E0,8.879069686E-1,5.636134624E0,7.975963593E0
4.233292769E0,8.945399523E-1,5.665732861E0,7.954222679E0
4.238292769E0,9.003135562E-1,5.696089745E0,7.931858540E0
4.243292769E0,9.061429501E-1,5.727184772E0,7.908771038E0
4.248292769E0,9.113553762E-1,5.759298325E0,7.884814739E0
4.253292769E0,9.155583978E-1,5.793038368E0,7.859570503E0
4.258292769E0,9.195601344E-1,5.828780174E0,7.832632065E0
4.263292769E0,9.241403341E-1,5.865330696E0,7.804757118E0
4.268292769E0,9.283435345E-1,5.902992725E0,7.775810719E0
4.273292769E0,9.333275557E-1,5.942132950E0,7.745343208E0
4.278292769E0,9.385742545E-1,5.982343197E0,7.713691235E0
4.283292769E0,9.435601830E-1,6.023269176E0,7.681165695E0
4.288292769E0,9.493407607E-1,6.064894676E0,7.647626400E0
4.293292769E0,9.555273056E-1,6.107188225E0,7.613121510E0
4.298292769E0,9.624376297E-1,6.150794983E0,7.577058792E0
4.303292769E0,9.694899917E-1,6.194095135E0,7.540800095E0
4.308292769E0,9.772406816E-1,6.236937523E0,7.504397392E0
4.313292769E0,9.853446484E-1,6.279333591E0,7.467895985E0
4.318292769E0,9.929607511E-1,6.321143627E0,7.431525230E0
4.323292769E0,9.993181825E-1,6.362358093E0,7.395413876E0
4.328292769E0,1.006062388E0,6.401532173E0,7.360611916E0
4.333292769E0,1.012255430E0,6.438275337E0,7.327641964E0
4.338292769E0,1.018334150E0,6.472795486E0,7.296321869E0
4.343292769E0,1.025477052E0,6.502193928E0,7.269130230E0
4.348292769E0,1.032031894E0,6.529366016E0,7.243802071E0
4.353292769E0,1.038054109E0,6.554268360E0,7.220414639E0
4.358292769E0,1.043645024E0,6.576812267E0,7.199078083E0
4.363292769E0,1.048615098E0,6.596836090E0,7.180010319E0
4.368292769E0,1.052823544E0,6.614174843E0,7.163424492E0
4.373292769E0,1.056081295E0,6.628570080E0,7.149625301E0
4.378292769E0,1.058126569E0,6.639648914E0,7.139034271E0
4.383292769E0,1.059042454E0,6.647185326E0,7.131882191E0
4.388292769E0,1.059385300E0,6.650898457E0,7.128368855E0
4.393292769E0,1.059478402E0,6.650901318E0,7.128353119E0
4.398292769E0,1.059442639E0,6.647313595E0,7.131702900E0
4.403292769E0,1.059277296E0,6.640474796E0,7.138096333E0
4.408292769E0,1.059000969E0,6.630874634E0,7.147057056E0
4.413292769E0,1.058872581E0,6.619046211E0,7.158030987E0
4.418292769E0,1.058956742E0,6.605752468E0,7.170288563E0
4.423292769E0,1.059250832E0,6.591655731E0,7.183206081E0
4.428292769E0,1.059930563E0,6.577298164E0,7.196256161E0
4.433292769E0,1.061097383E0,6.563021660E0,7.209105492E0
4.438292769E0,1.061888099E0,6.549079418E0,7.221658707E0
4.443292769E0,1.062459707E0,6.535880566E0,7.233522415E0
4.448292769E0,1.062336087E0,6.523684502E0,7.244540215E0
4.453292769E0,1.061323881E0,6.512714386E0,7.254551411E0
4.458292769E0,1.059315681E0,6.503101349E0,7.263463974E0
4.463292769E0,1.056510329E0,6.494926453E0,7.271182060E0
4.468292769E0,1.053099632E0,6.488111496E0,7.277759552E0
4.473292769E0,1.049213767E0,6.482654572E0,7.283181190E0
4.478292769E0,1.045039177E0,6.478346348E0,7.287613392E0
4.483292769E0,1.040807605E0,6.474966049E0,7.291221619E0
4.488292769E0,1.036365747E0,6.472298622E0,7.294223309E0
4.493292769E0,1.031744361E0,6.470054626E0,7.296868324E0
4.498292769E0,1.026705623E0,6.467959404E0,7.299435616E0
4.503292769E0,1.021132231E0,6.465770721E0,7.302156448E0
4.508292769E0,1.015104771E0,6.463164330E0,7.305303574E0
4.513292769E0,1.008906364E0,6.459802151E0,7.309134960E0
4.518292769E0,1.002896786E0,6.455419064E0,7.313832760E0
4.523292769E0,9.974417686E-1,6.449878216E0,7.319464684E0
4.528292769E0,9.927971959E-1,6.443248272E0,7.325932026E0
4.533292769E0,9.887550473E-1,6.435827255E0,7.333000183E0
4.538292769E0,9.851437211E-1,6.427867413E0,7.340463161E0
4.543292769E0,9.817984700E-1,6.419650555E0,7.348098755E0
4.548292769E0,9.784663320E-1,6.411493301E0,7.355660439E0
4.553292769E0,9.750491977E-1,6.403608799E0,7.362977982E0
4.558292769E0,9.718233943E-1,6.396064758E0,7.369959831E0
4.563292769E0,9.681460261E-1,6.388905048E0,7.376650333E0
4.568292769E0,9.642368555E-1,6.382197857E0,7.382966042E0
4.573292769E0,9.603180885E-1,6.376040459E0,7.388794422E0
4.578292769E0,9.563699961E-1,6.370462894E0,7.394115925E0
4.583292769E0,9.526446462E-1,6.365401268E0,7.398955345E0
4.588292769E0,9.491092563E-1,6.360826492E0,7.403341293E0
4.593292769E0,9.459680915E-1,6.356699944E0,7.407286167E0
4.598292769E0,9.434158206E-1,6.352986336E0,7.410797119E0
4.603292769E0,9.416510463E-1,6.349519253E0,7.413992882E0
4.608292769E0,9.408901334E-1,6.346199989E0,7.416931629E0
4.613292769E0,9.411814213E-1,6.342988491E0,7.419641018E0
4.618292769E0,9.427881837E-1,6.339695454E0,7.422250748E0
4.623292769E0,9.478055239E-1,6.336159229E0,7.424630165E0
4.628292769E0,9.540534616E-1,6.331671715E0,7.427657127E0
4.633292769E0,9.588979483E-1,6.326751709E0,7.431224823E0
4.638292769E0,9.646987915E-1,6.321580410E0,7.434875011E0
4.643292769E0,9.721276760E-1,6.315689564E0,7.438912392E0
4.648292769E0,9.813827872E-1,6.308843136E0,7.443505287E0
4.653292769E0,9.931207895E-1,6.300862312E0,7.448707104E0
4.658292769E0,1.008192182E0,6.291784763E0,7.454352856E0
4.663292769E0,1.025346637E0,6.281499863E0,7.460684299E0
4.668292769E0,1.042629480E0,6.270556927E0,7.467490673E0
4.673292769E0,1.061740756E0,6.259261608E0,7.474271774E0
4.678292769E0,1.082762718E0,6.247652531E0,7.480965614E0
4.683292769E0,1.104821205E0,6.235777378E0,7.487646103E0
4.688292769E0,1.127497077E0,6.223733902E0,7.494283199E0
4.693292769E0,1.150711656E0,6.211597919E0,7.500819683E0
4.698292769E0,1.174266934E0,6.199326992E0,7.507318497E0
4.703292769E0,1.197864294E0,6.186913967E0,7.513827324E0
4.708292769E0,1.222161412E0,6.174750328E0,7.519917488E0
4.713292769E0,1.245972753E0,6.162405014E0,7.526134968E0
4.718292769E0,1.267752171E0,6.150256157E0,7.532432556E0
4.723292769E0,1.287594795E0,6.137984276E0,7.539073944E0
4.728292769E0,1.311105847E0,6.124118805E0,7.546294212E0
4.733292769E0,1.337674022E0,6.108841896E0,7.554009438E0
4.738292769E0,1.366029978E0,6.092929363E0,7.561783314E0
4.743292769E0,1.395814180E0,6.077007294E0,7.569152832E0
4.748292769E0,1.426726818E0,6.061630249E0,7.575715542E0
4.753292769E0,1.458152771E0,6.046955109E0,7.581458569E0
4.758292769E0,1.489289522E0,6.032840252E0,7.586647987E0
4.763292769E0,1.519650578E0,6.019165993E0,7.591487885E0
4.768292769E0,1.548747540E0,6.005482674E0,7.596442699E0
4.773292769E0,1.576028228E0,5.991287231E0,7.602039814E0
4.778292769E0,1.601470470E0,5.976377487E0,7.608455181E0
4.783292769E0,1.625109315E0,5.960572720E0,7.615838051E0
4.788292769E0,1.647260308E0,5.943834782E0,7.624155045E0
4.793292769E0,1.667857766E0,5.926021099E0,7.633538723E0
4.798292769E0,1.687504768E0,5.906757355E0,7.644144058E0
4.803292769E0,1.706830144E0,5.885681629E0,7.656099319E0
4.808292769E0,1.726867795E0,5.862581253E0,7.669318676E0
4.813292769E0,1.746366858E0,5.838334084E0,7.683387756E0
4.818292769E0,1.764338851E0,5.813426018E0,7.698153973E0
4.823292769E0,1.781267881E0,5.788014889E0,7.713387966E0
4.828292769E0,1.796982765E0,5.762109280E0,7.729122639E0
4.833292769E0,1.811020732E0,5.736027718E0,7.745229244E0
4.838292769E0,1.823656440E0,5.709546566E0,7.761814117E0
4.843292769E0,1.835226536E0,5.682713509E0,7.778759003E0
4.848292769E0,1.846521258E0,5.656025887E0,7.795518875E0
4.853292769E0,1.857746482E0,5.630208492E0,7.811524391E0
4.858292769E0,1.868205070E0,5.606050014E0,7.826392174E0
4.863292769E0,1.876853347E0,5.584038258E0,7.840046406E0
4.868292769E0,1.885418296E0,5.563104153E0,7.852863312E0
4.873292769E0,1.893980622E0,5.542759418E0,7.865179062E0
4.878292769E0,1.902516007E0,5.522730350E0,7.877199650E0
4.883292769E0,1.911458731E0,5.503018856E0,7.888821125E0
4.888292769E0,1.921178818E0,5.483674526E0,7.899922371E0
4.893292769E0,1.931433082E0,5.464891434E0,7.910430908E0
4.898292769E0,1.941982627E0,5.446988583E0,7.920189381E0
4.903292769E0,1.952092767E0,5.430141926E0,7.929266930E0
4.908292769E0,1.960640669E0,5.414760590E0,7.937672138E0
4.913292769E0,1.967227221E0,5.401299477E0,7.945210934E0
4.918292769E0,1.971968412E0,5.390010357E0,7.951699257E0
4.923292769E0,1.975312233E0,5.381039619E0,7.956943035E0
4.928292769E0,1.977573037E0,5.374368668E0,7.960889339E0
4.933292769E0,1.979146361E0,5.369677544E0,7.963663101E0
4.938292769E0,1.980129957E0,5.366656780E0,7.965454578E0
4.943292769E0,1.981199384E0,5.365055561E0,7.966267109E0
4.948292769E0,1.982628703E0,5.364403248E0,7.966351032E0
4.953292769E0,1.984124184E0,5.364328384E0,7.966028690E0
4.958292769E0,1.985455155E0,5.364229202E0,7.965764999E0
4.963292769E0,1.986518264E0,5.363617420E0,7.965910912E0
4.968292769E0,1.987327576E0,5.361882687E0,7.966876984E0
4.973292769E0,1.987867117E0,5.358610153E0,7.968944550E0
4.978292769E0,1.987800241E0,5.353104591E0,7.972661018E0
4.983292769E0,1.986954927E0,5.345129967E0,7.978219509E0
4.988292769E0,1.985277057E0,5.334383488E0,7.985826015E0
4.993292769E0,1.982287049E0,5.321226597E0,7.995341301E0
4.998292769E0,1.977858663E0,5.306147099E0,8.006450653E0
5.003292769E0,1.972134590E0,5.289412975E0,8.018926620E0
5.008292769E0,1.965207934E0,5.271152973E0,8.032639503E0
5.013292769E0,1.957099676E0,5.251574039E0,8.047430038E0
5.018292769E0,1.947546840E0,5.230834961E0,8.063239098E0
5.023292769E0,1.933650494E0,5.208943844E0,8.080735207E0
5.028292769E0,1.917253137E0,5.186872482E0,8.098819733E0
5.033292769E0,1.898336411E0,5.164875507E0,8.117313385E0
5.038292769E0,1.874664545E0,5.143477440E0,8.136378288E0
5.043292769E0,1.845831513E0,5.123523235E0,8.155537605E0
5.048292769E0,1.817013621E0,5.104791164E0,8.173736572E0
5.053292769E0,1.791417241E0,5.086930275E0,8.190504074E0
5.058292769E0,1.769959688E0,5.070032120E0,8.205632210E0
5.063292769E0,1.751773357E0,5.054453373E0,8.219135284E0
5.068292769E0,1.735573053E0,5.040419102E0,8.231182098E0
5.073292769E0,1.719895720E0,5.028195381E0,8.241941452E0
5.078292769E0,1.703833222E0,5.017706871E0,8.251664162E0
5.083292769E0,1.687017083E0,5.008856297E0,8.260491371E0
5.088292769E0,1.669702053E0,5.001546860E0,8.268434525E0
5.093292769E0,1.652253270E0,4.995555401E0,8.275559425E0
5.098292769E0,1.635313272E0,4.990601063E0,8.281910896E0
5.103292769E0,1.619430542E0,4.986500263E0,8.287498474E0
5.108292769E0,1.604089856E0,4.983144283E0,8.292499542E0
5.113292769E0,1.589103699E0,4.980431080E0,8.297013283E0
5.118292769E0,1.574593186E0,4.978207588E0,8.301114082E0
5.123292769E0,1.560595632E0,4.976237774E0,8.304937363E0
5.128292769E0,1.547334194E0,4.974385262E0,8.308526993E0
5.133292769E0,1.534881711E0,4.972531796E0,8.311945915E0
5.138292769E0,1.523286581E0,4.970473766E0,8.315308571E0
5.143292769E0,1.512347221E0,4.967936039E0,8.318821907E0
5.148292769E0,1.501935959E0,4.964895248E0,8.322523117E0
5.153292769E0,1.492086291E0,4.961436272E0,8.326355934E0
5.158292769E0,1.483019710E0,4.957481861E0,8.330330849E0
5.163292769E0,1.474626422E0,4.952886105E0,8.334553719E0
5.168292769E0,1.468048930E0,4.948961258E0,8.338045120E0
5.173292769E0,1.464079857E0,4.945596695E0,8.340739250E0
5.178292769E0,1.458676219E0,4.941008568E0,8.344403267E0
5.183292769E0,1.453564644E0,4.936045647E0,8.348233223E0
5.188292769E0,1.449837089E0,4.931385040E0,8.351634026E0
5.193292769E0,1.446039796E0,4.926039219E0,8.355447769E0
5.198292769E0,1.442476749E0,4.920084000E0,8.359570503E0
5.203292769E0,1.439562917E0,4.914231300E0,8.363514900E0
5.208292769E0,1.437336922E0,4.908561707E0,8.367226601E0
5.213292769E0,1.435604811E0,4.903280735E0,8.370618820E0
5.218292769E0,1.434193373E0,4.898464680E0,8.373681068E0
5.223292769E0,1.432742238E0,4.894124508E0,8.376465797E0
5.228292769E0,1.431603074E0,4.890681744E0,8.378671646E0
5.233292769E0,1.430481315E0,4.887748241E0,8.380574226E0
5.238292769E0,1.429535151E0,4.885350704E0,8.382133484E0
5.243292769E0,1.428714395E0,4.883385181E0,8.383418083E0
5.248292769E0,1.427689195E0,4.881473541E0,8.384707451E0
5.253292769E0,1.426387310E0,4.879481316E0,8.386087418E0
5.258292769E0,1.425021291E0,4.877313614E0,8.387580872E0
5.263292769E0,1.424476027E0,4.874214649E0,8.389474869E0
5.268292769E0,1.425063968E0,4.870065212E0,8.391784668E0
5.273292769E0,1.425971389E0,4.865784168E0,8.394113541E0
5.278292769E0,1.424882412E0,4.863587379E0,8.395570755E0
5.283292769E0,1.420354128E0,4.864271164E0,8.395941734E0
5.288292769E0,1.413595080E0,4.867094040E0,8.395446777E0
5.293292769E0,1.406148195E0,4.871243000E0,8.394290924E0
5.298292769E0,1.398514152E0,4.876174927E0,8.392703056E0
5.303292769E0,1.391433001E0,4.881557465E0,8.390750885E0
5.308292769E0,1.385207891E0,4.886833668E0,8.388709068E0
5.313292769E0,1.380113482E0,4.891760826E0,8.386677742E0
5.318292769E0,1.376367807E0,4.896090508E0,8.384765625E0
5.323292769E0,1.374060750E0,4.899892807E0,8.382923126E0
5.328292769E0,1.373026609E0,4.903053761E0,8.381242752E0
5.333292769E0,1.372228026E0,4.905452251E0,8.379971504E0
5.338292769E0,1.371683598E0,4.907051086E0,8.379124641E0
5.343292769E0,1.371564984E0,4.907894135E0,8.378649712E0
5.348292769E0,1.371563911E0,4.908288479E0,8.378419876E0
5.353292769E0,1.371742129E0,4.908851624E0,8.378059387E0
5.358292769E0,1.372434020E0,4.909484863E0,8.377575874E0
5.363292769E0,1.374431372E0,4.910038948E0,8.376922607E0
5.368292769E0,1.378235698E0,4.910496235E0,8.376029968E0
5.373292769E0,1.383453727E0,4.910617352E0,8.375098228E0
5.378292769E0,1.389366388E0,4.910326481E0,8.374290466E0
5.383292769E0,1.395247817E0,4.909892082E0,8.373567581E0
5.388292769E0,1.400683641E0,4.909635067E0,8.372810364E0
5.393292769E0,1.405820608E0,4.909445286E0,8.372060776E0
5.398292769E0,1.411612988E0,4.909445763E0,8.371086121E0
5.403292769E0,1.418719769E0,4.909523964E0,8.369839668E0
5.408292769E0,1.427201509E0,4.910057545E0,8.368083954E0
5.413292769E0,1.437141418E0,4.910964966E0,8.365849495E0
5.418292769E0,1.448329806E0,4.912409306E0,8.363072395E0
5.423292769E0,1.460908055E0,4.914480209E0,8.359666824E0
5.428292769E0,1.476702094E0,4.917091370E0,8.355354309E0
5.433292769E0,1.496215105E0,4.920275688E0,8.350007057E0
5.438292769E0,1.521153808E0,4.923701763E0,8.343479156E0
5.443292769E0,1.548269510E0,4.928586006E0,8.335603714E0
5.448292769E0,1.577584863E0,4.935164928E0,8.326209068E0
5.453292769E0,1.608347178E0,4.942741871E0,8.315822601E0
5.458292769E0,1.639862418E0,4.950648785E0,8.304958344E0
5.463292769E0,1.672142863E0,4.958691120E0,8.293714523E0
5.468292769E0,1.705273747E0,4.966746807E0,8.282140732E0
5.473292769E0,1.739269137E0,4.974824905E0,8.270213127E0
5.478292769E0,1.773636699E0,4.982783318E0,8.258115768E0
5.483292769E0,1.807388902E0,4.990445137E0,8.246161461E0
5.488292769E0,1.840512395E0,4.997518063E0,8.234544754E0
5.493292769E0,1.871839046E0,5.004316330E0,8.223345757E0
5.498292769E0,1.900360584E0,5.011430264E0,8.212465286E0
5.503292769E0,1.930824637E0,5.017088413E0,8.201898575E0
5.508292769E0,1.963778257E0,5.021787643E0,8.191190720E0
5.513292769E0,1.997669458E0,5.026581764E0,8.180047035E0
5.518292769E0,2.032283306E0,5.030755997E0,8.168947220E0
5.523292769E0,2.067675591E0,5.034193516E0,8.157939911E0
5.528292769E0,2.103094339E0,5.037272930E0,8.146979332E0
5.533292769E0,2.137291431E0,5.040407658E0,8.136133194E0
5.538292769E0,2.169552803E0,5.043699741E0,8.125546455E0
5.543292769E0,2.199468136E0,5.047240257E0,8.115300179E0
5.548292769E0,2.227199793E0,5.050749302E0,8.105547905E0
5.553292769E0,2.253192902E0,5.054123402E0,8.096255302E0
5.558292769E0,2.278031826E0,5.057232380E0,8.087358475E0
5.563292769E0,2.301771879E0,5.059936047E0,8.078940392E0
5.568292769E0,2.324447393E0,5.062124729E0,8.071073532E0
5.573292769E0,2.346277714E0,5.063434601E0,8.063931465E0
5.578292769E0,2.367715120E0,5.063689709E0,8.057503700E0
5.583292769E0,2.388622046E0,5.063005924E0,8.051759720E0
5.588292769E0,2.408859253E0,5.061498165E0,8.046677589E0
5.593292769E0,2.428239346E0,5.059284210E0,8.042243958E0
5.598292769E0,2.447141647E0,5.056204796E0,8.038450241E0
5.603292769E0,2.465170860E0,5.053421974E0,8.034689903E0
5.608292769E0,2.482276201E0,5.048555374E0,8.032482147E0
5.613292769E0,2.498312473E0,5.042622089E0,8.031237602E0
5.618292769E0,2.512922049E0,5.035767078E0,8.030981064E0
5.623292769E0,2.526396513E0,5.028209209E0,8.031489372E0
5.628292769E0,2.538655996E0,5.020108700E0,8.032691002E0
5.633292769E0,2.549298286E0,5.011943817E0,8.034419060E0
5.638292769E0,2.558209896E0,5.003931522E0,8.036579132E0
5.643292769E0,2.564594269E0,4.996516228E0,8.039158821E0
5.648292769E0,2.568461895E0,4.990477085E0,8.041674614E0
5.653292769E0,2.570279837E0,4.983928680E0,8.045153618E0
5.658292769E0,2.570154190E0,4.977450848E0,8.049203873E0
5.663292769E0,2.568381310E0,4.971551418E0,8.053415298E0
5.668292769E0,2.564797163E0,4.966140270E0,8.057894707E0
5.673292769E0,2.559167147E0,4.960671902E0,8.063051224E0
5.678292769E0,2.551381826E0,4.955790997E0,8.068517685E0
5.683292769E0,2.541935682E0,4.951195717E0,8.074317932E0
5.688292769E0,2.530563116E0,4.946625233E0,8.080688477E0
5.693292769E0,2.517363787E0,4.941849709E0,8.087730408E0
5.698292769E0,2.500814438E0,4.937052727E0,8.095791817E0
5.703292769E0,2.481858015E0,4.931298733E0,8.105126381E0
5.708292769E0,2.462004900E0,4.923418999E0,8.115963936E0
5.713292769E0,2.441695213E0,4.913279057E0,8.128234863E0
5.718292769E0,2.421630859E0,4.900635242E0,8.141858101E0
5.723292769E0,2.402148724E0,4.885312080E0,8.156825066E0
5.728292769E0,2.383124828E0,4.867678642E0,8.172931671E0
5.733292769E0,2.363677263E0,4.848555088E0,8.189929008E0
5.738292769E0,2.343400240E0,4.828849792E0,8.207379341E0
5.743292769E0,2.322463751E0,4.809219360E0,8.224838257E0
5.748292769E0,2.300651789E0,4.789811611E0,8.242275238E0
5.753292769E0,2.277948141E0,4.771101475E0,8.259414673E0
5.758292769E0,2.254085302E0,4.753020763E0,8.276369095E0
5.763292769E0,2.229595900E0,4.735777855E0,8.292870522E0
5.768292769E0,2.204764605E0,4.719089031E0,8.309006691E0
5.773292769E0,2.179998875E0,4.703057289E0,8.324617386E0
5.778292769E0,2.155569553E0,4.687610626E0,8.339676857E0
5.783292769E0,2.131354094E0,4.672758102E0,8.354223251E0
5.788292769E0,2.107773542E0,4.658340454E0,8.368246078E0
5.793292769E0,2.085371971E0,4.644775867E0,8.381388664E0
5.798292769E0,2.064752817E0,4.632480621E0,8.393289566E0
5.803292769E0,2.046206236E0,4.621745586E0,8.403742790E0
5.808292769E0,2.029932499E0,4.613015652E0,8.412482262E0
5.813292769E0,2.016050577E0,4.606184006E0,8.419560432E0
5.818292769E0,2.004234076E0,4.601390362E0,8.425001144E0
5.823292769E0,1.994032383E0,4.598496914E0,8.428999901E0
5.828292769E0,1.982130766E0,4.597962379E0,8.432098389E0
5.833292769E0,1.967825413E0,4.599502563E0,8.434609413E0
5.838292769E0,1.955233693E0,4.601794243E0,8.436286926E0
5.843292769E0,1.945440292E0,4.604684353E0,8.436974525E0
5.848292769E0,1.937061310E0,4.608009338E0,8.437087059E0
5.853292769E0,1.928869367E0,4.612429619E0,8.436547279E0
5.858292769E0,1.920514345E0,4.617955685E0,8.435431480E0
5.863292769E0,1.911154270E0,4.624466896E0,8.433989525E0
5.868292769E0,1.900968671E0,4.631484985E0,8.432440758E0
5.873292769E0,1.889918685E0,4.638843536E0,8.430879593E0
5.878292769E0,1.877886176E0,4.646524906E0,8.429338455E0
5.883292769E0,1.865086198E0,4.653367043E0,8.428404808E0
5.888292769E0,1.851418138E0,4.658330917E0,8.428675652E0
5.893292769E0,1.837666392E0,4.662187099E0,8.429553986E0
5.898292769E0,1.824420214E0,4.664792538E0,8.430989265E0
5.903292769E0,1.811605215E0,4.666072845E0,8.433044434E0
5.908292769E0,1.798678994E0,4.666571617E0,8.435534477E0
5.913292769E0,1.785542250E0,4.666237831E0,8.438509941E0
5.918292769E0,1.772268057E0,4.665369987E0,8.441786766E0
5.923292769E0,1.759278893E0,4.663941383E0,8.445293427E0
5.928292769E0,1.746300936E0,4.661932468E0,8.449094772E0
5.933292769E0,1.733061075E0,4.659865379E0,8.452960014E0
5.938292769E0,1.719669223E0,4.658308506E0,8.456553459E0
5.943292769E0,1.705294728E0,4.655171871E0,8.461190224E0
5.948292769E0,1.689955473E0,4.651571274E0,8.466246605E0
5.953292769E0,1.674928546E0,4.648074627E0,8.471151352E0
5.958292769E0,1.660565972E0,4.645294189E0,8.475502968E0
5.963292769E0,1.646125674E0,4.642058372E0,8.480092049E0
5.968292769E0,1.631038189E0,4.637986660E0,8.485232353E0
5.973292769E0,1.615521669E0,4.633265495E0,8.490779877E0
5.978292769E0,1.600632787E0,4.627520084E0,8.496729851E0
5.983292769E0,1.587852359E0,4.622019291E0,8.502120972E0
5.988292769E0,1.576185703E0,4.617783070E0,8.506591797E0
5.993292769E0,1.565242529E0,4.615267277E0,8.509977341E0
5.998292769E0,1.554843068E0,4.613238335E0,8.512982368E0
6.003292769E0,1.545014024E0,4.610889912E0,8.516044617E0
6.008292769E0,1.536257744E0,4.608555794E0,8.518892288E0
6.013292769E0,1.529363990E0,4.606501102E0,8.521243095E0
6.018292769E0,1.523708701E0,4.604299068E0,8.523446083E0
6.023292769E0,1.518527269E0,4.601926804E0,8.525650978E0
6.028292769E0,1.513219714E0,4.599672794E0,8.527811050E0
6.033292769E0,1.508087754E0,4.598328114E0,8.529445648E0
6.038292769E0,1.502451539E0,4.596527100E0,8.531410217E0
6.043292769E0,1.495870233E0,4.593601227E0,8.534142494E0
6.048292769E0,1.488904476E0,4.590359211E0,8.537104607E0
6.053292769E0,1.482362866E0,4.587130547E0,8.539977074E0
6.058292769E0,1.476779103E0,4.584607601E0,8.542299271E0
6.063292769E0,1.471344113E0,4.581802845E0,8.544741631E0
6.068292769E0,1.466170073E0,4.578571320E0,8.547363281E0
6.073292769E0,1.461432815E0,4.575607777E0,8.549760818E0
6.078292769E0,1.457103610E0,4.573363781E0,8.551700592E0
6.083292769E0,1.453330517E0,4.572655201E0,8.552721977E0
6.088292769E0,1.449896336E0,4.573288441E0,8.552966118E0
6.093292769E0,1.446619987E0,4.574855804E0,8.552681923E0
6.098292769E0,1.444066405E0,4.577770710E0,8.551553726E0
6.103292769E0,1.441612720E0,4.582461357E0,8.549455643E0
6.108292769E0,1.438718796E0,4.587863922E0,8.547045708E0
6.113292769E0,1.437204242E0,4.595081329E0,8.543422699E0
6.118292769E0,1.437276125E0,4.603431225E0,8.538912773E0
6.123292769E0,1.438805938E0,4.612835407E0,8.533579826E0
6.128292769E0,1.442100883E0,4.623158455E0,8.527434349E0
6.133292769E0,1.447675467E0,4.634073734E0,8.520562172E0
6.138292769E0,1.454955339E0,4.645593166E0,8.513047218E0
6.143292769E0,1.462958217E0,4.657882214E0,8.504956245E0
6.148292769E0,1.470846772E0,4.671023846E0,8.496383667E0
6.153292769E0,1.478012323E0,4.685448170E0,8.487194061E0
6.158292769E0,1.484266162E0,4.700966358E0,8.477515221E0
6.163292769E0,1.490143299E0,4.717820644E0,8.467114449E0
6.168292769E0,1.494984388E0,4.735768795E0,8.456234932E0
6.173292769E0,1.498529911E0,4.752436638E0,8.446250916E0
6.178292769E0,1.502182603E0,4.769212723E0,8.436139107E0
6.183292769E0,1.505559444E0,4.786770821E0,8.425586700E0
6.188292769E0,1.508027196E0,4.804600716E0,8.414989471E0
6.193292769E0,1.510685325E0,4.822715759E0,8.404143333E0
6.198292769E0,1.514028549E0,4.840620041E0,8.393240929E0
6.203292769E0,1.517401814E0,4.858782768E0,8.382130623E0
6.208292769E0,1.519335032E0,4.876820087E0,8.371297836E0
6.213292769E0,1.519647360E0,4.894919872E0,8.360671043E0
6.218292769E0,1.518943071E0,4.913757801E0,8.349740982E0
6.223292769E0,1.517149210E0,4.932991982E0,8.338719368E0
6.228292769E0,1.513106823E0,4.953509808E0,8.327281952E0
6.233292769E0,1.503362179E0,4.977426052E0,8.314777374E0
6.238292769E0,1.493992448E0,5.000670910E0,8.302510262E0
6.243292769E0,1.489191294E0,5.021164417E0,8.290994644E0
6.248292769E0,1.489434838E0,5.040398121E0,8.279272079E0
6.253292769E0,1.495776296E0,5.058224201E0,8.267249107E0
6.258292769E0,1.505698442E0,5.074937820E0,8.255196571E0
6.263292769E0,1.515589714E0,5.090806484E0,8.243607521E0
6.268292769E0,1.524274945E0,5.105916023E0,8.232654572E0
6.273292769E0,1.531813025E0,5.120196342E0,8.222379684E0
6.278292769E0,1.538493991E0,5.132533073E0,8.213436127E0
6.283292769E0,1.544158101E0,5.142795563E0,8.205949783E0
6.288292769E0,1.549048543E0,5.150525093E0,8.200178146E0
6.293292769E0,1.552718639E0,5.156133652E0,8.195959091E0
6.298292769E0,1.554650068E0,5.159731865E0,8.193326950E0
6.303292769E0,1.551938295E0,5.162190914E0,8.192293167E0
6.308292769E0,1.543767571E0,5.164272785E0,8.192524910E0
6.313292769E0,1.532512307E0,5.165078640E0,8.194128990E0
6.318292769E0,1.519887447E0,5.163962364E0,8.197184563E0
6.323292769E0,1.506405592E0,5.160250664E0,8.202008247E0
6.328292769E0,1.491692781E0,5.153701305E0,8.208812714E0
6.333292769E0,1.474233031E0,5.144065380E0,8.218006134E0
6.338292769E0,1.453335404E0,5.131112099E0,8.229816437E0
6.343292769E0,1.429276109E0,5.114223003E0,8.244529724E0
6.348292769E0,1.401673794E0,5.093200684E0,8.262264252E0
6.353292769E0,1.371900678E0,5.068805218E0,8.282238960E0
6.358292769E0,1.340632796E0,5.041110039E0,8.304233551E0
6.363292769E0,1.309249640E0,5.010840893E0,8.327528000E0
6.368292769E0,1.279099226E0,4.978682041E0,8.351467133E0
6.373292769E0,1.250264764E0,4.946128368E0,8.375144005E0
6.378292769E0,1.223396420E0,4.914295197E0,8.397820473E0
6.383292769E0,1.198879719E0,4.885485649E0,8.418141365E0
6.388292769E0,1.174722910E0,4.862773418E0,8.434681892E0
6.393292769E0,1.148628950E0,4.847205162E0,8.447226524E0
6.398292769E0,1.117913127E0,4.838316917E0,8.456437111E0
6.403292769E0,1.087426782E0,4.833201885E0,8.463335037E0
6.408292769E0,1.058207989E0,4.830455780E0,8.468605042E0
6.413292769E0,1.030276537E0,4.829472065E0,8.472610474E0
6.418292769E0,1.005206943E0,4.829910278E0,8.475371361E0
6.423292769E0,9.829980731E-1,4.830930710E0,8.477394104E0
6.428292769E0,9.621084332E-1,4.832107067E0,8.479120255E0
6.433292769E0,9.425726533E-1,4.833117008E0,8.480738640E0
6.438292769E0,9.233626127E-1,4.833577156E0,8.482589722E0
6.443292769E0,9.032028317E-1,4.833745003E0,8.484663963E0
6.448292769E0,8.808687925E-1,4.833597183E0,8.487094879E0
6.453292769E0,8.564285636E-1,4.832603931E0,8.490161896E0
6.458292769E0,8.315001726E-1,4.830201149E0,8.494007111E0
6.463292769E0,8.070255518E-1,4.825927258E0,8.498795509E0
6.468292769E0,7.846438885E-1,4.819628239E0,8.504464149E0
6.473292769E0,7.637960911E-1,4.811182022E0,8.511141777E0
6.478292769E0,7.444438934E-1,4.800523281E0,8.518871307E0
6.483292769E0,7.253686786E-1,4.787589550E0,8.527790070E0
6.488292769E0,7.059320807E-1,4.773208141E0,8.537478447E0
6.493292769E0,6.873457432E-1,4.755528927E0,8.548852921E0
6.498292769E0,6.686629653E-1,4.737410545E0,8.560385704E0
6.503292769E0,6.511285901E-1,4.719379902E0,8.571690559E0
6.508292769E0,6.354918480E-1,4.701890469E0,8.582468033E0
6.513292769E0,6.208761334E-1,4.685543537E0,8.592472076E0
6.518292769E0,6.066882014E-1,4.670778275E0,8.601519585E0
6.523292769E0,5.933575034E-1,4.657819748E0,8.609473228E0
6.528292769E0,5.822497606E-1,4.646773338E0,8.616197586E0
6.533292769E0,5.741366148E-1,4.637597084E0,8.621685028E0
6.538292769E0,5.698239207E-1,4.630431175E0,8.625822067E0
6.543292769E0,5.680085421E-1,4.625483036E0,8.628595352E0
6.548292769E0,5.656417012E-1,4.622952938E0,8.630106926E0
6.553292769E0,5.605278015E-1,4.622623444E0,8.630617142E0
6.558292769E0,5.530574918E-1,4.624105930E0,8.630304337E0
6.563292769E0,5.440436006E-1,4.626801014E0,8.629433632E0
6.568292769E0,5.350010395E-1,4.630076408E0,8.628241539E0
6.573292769E0,5.264515877E-1,4.633015156E0,8.627189636E0
6.578292769E0,5.182763934E-1,4.635009289E0,8.626613617E0
6.583292769E0,5.101671219E-1,4.635666847E0,8.626743317E0
6.588292769E0,5.021249056E-1,4.635090828E0,8.627525330E0
6.593292769E0,4.935229421E-1,4.633481503E0,8.628886223E0
6.598292769E0,4.839669466E-1,4.630772591E0,8.630881310E0
6.603292769E0,4.734331071E-1,4.626979828E0,8.633499146E0
6.608292769E0,4.612455070E-1,4.622588634E0,8.636510849E0
6.613292769E0,4.469251037E-1,4.617211342E0,8.640138626E0
6.618292769E0,4.324211478E-1,4.609354019E0,8.645071030E0
6.623292769E0,4.192059040E-1,4.598819256E0,8.651330948E0
6.628292769E0,4.106338918E-1,4.588155270E0,8.657401085E0
6.633292769E0,4.118872881E-1,4.580235958E0,8.661534309E0
6.638292769E0,4.248756468E-1,4.576714039E0,8.662768364E0
6.643292769E0,4.459010959E-1,4.576323986E0,8.661917686E0
6.648292769E0,4.734279811E-1,4.576491833E0,8.660367966E0
6.653292769E0,5.075614452E-1,4.575664520E0,8.658871651E0
6.658292769E0,5.474326015E-1,4.572607994E0,8.658057213E0
6.663292769E0,5.917332172E-1,4.566817760E0,8.658199310E0
6.668292769E0,6.392104626E-1,4.557799339E0,8.659576416E0
6.673292769E0,6.879691482E-1,4.544991493E0,8.662570953E0
6.678292769E0,7.369186282E-1,4.528302670E0,8.667284012E0
6.683292769E0,7.853623033E-1,4.508141041E0,8.673537254E0
6.688292769E0,8.323106766E-1,4.485134125E0,8.681084633E0
6.693292769E0,8.766627312E-1,4.459599972E0,8.689867973E0
6.698292769E0,9.170968533E-1,4.431448460E0,8.700091362E0
6.703292769E0,9.527812600E-1,4.400736332E0,8.711837769E0
6.708292769E0,9.856420755E-1,4.367820263E0,8.724738121E0
6.713292769E0,1.016604066E0,4.333912373E0,8.738083839E0
6.718292769E0,1.045841098E0,4.299798489E0,8.751476288E0
6.723292769E0,1.073797226E0,4.265862942E0,8.764688492E0
6.728292769E0,1.100632191E0,4.232101440E0,8.777717590E0
6.733292769E0,1.126874447E0,4.198020458E0,8.790742874E0
6.738292769E0,1.153268814E0,4.163399220E0,8.803775787E0
6.743292769E0,1.180939198E0,4.128395557E0,8.816581726E0
6.748292769E0,1.210778356E0,4.093419075E0,8.828834534E0
6.753292769E0,1.243623137E0,4.058908463E0,8.840195656E0
6.758292769E0,1.280399799E0,4.025517464E0,8.850207329E0
6.763292769E0,1.321453571E0,3.993298769E0,8.858764648E0
6.768292769E0,1.366518736E0,3.962064743E0,8.865949631E0
6.773292769E0,1.414582133E0,3.931599855E0,8.871970177E0
6.778292769E0,1.464585423E0,3.901381731E0,8.877195358E0
6.783292769E0,1.515102744E0,3.871130705E0,8.881959915E0
6.788292769E0,1.564334631E0,3.840790510E0,8.886594772E0
6.793292769E0,1.610867977E0,3.810518503E0,8.891312599E0
6.798292769E0,1.653859973E0,3.780922174E0,8.896053314E0
6.803292769E0,1.691875696E0,3.752441168E0,8.900962830E0
6.808292769E0,1.723484993E0,3.725142002E0,8.906362534E0
6.813292769E0,1.748188734E0,3.699016809E0,8.912434578E0
6.818292769E0,1.766390324E0,3.674369574E0,8.919038773E0
6.823292769E0,1.778800368E0,3.651524305E0,8.925951958E0
6.828292769E0,1.786432981E0,3.630308390E0,8.933079720E0
6.833292769E0,1.790447354E0,3.610688686E0,8.940224648E0
6.838292769E0,1.792516828E0,3.592328548E0,8.947203636E0
6.843292769E0,1.794325113E0,3.574885368E0,8.953824043E0
6.848292769E0,1.796861649E0,3.558253288E0,8.959939003E0
6.853292769E0,1.801011801E0,3.542565823E0,8.965320587E0
6.858292769E0,1.807634950E0,3.528060913E0,8.969705582E0
6.863292769E0,1.816818357E0,3.514719486E0,8.973088264E0
6.868292769E0,1.828023672E0,3.502752542E0,8.975491524E0
6.873292769E0,1.840928555E0,3.492157221E0,8.976983070E0
6.878292769E0,1.855313540E0,3.482587576E0,8.977738380E0
6.883292769E0,1.870401859E0,3.473919392E0,8.977965355E0
6.888292769E0,1.884702086E0,3.466086626E0,8.978002548E0
6.893292769E0,1.896891832E0,3.459379435E0,8.978022575E0
6.898292769E0,1.905644298E0,3.453445435E0,8.978452682E0
6.903292769E0,1.910066128E0,3.447340488E0,8.979860306E0
6.908292769E0,1.910147905E0,3.440258503E0,8.982558250E0
6.913292769E0,1.907786727E0,3.431963921E0,8.986231804E0
6.918292769E0,1.905794740E0,3.425235271E0,8.989221573E0
6.923292769E0,1.903785586E0,3.421193838E0,8.991186142E0
6.928292769E0,1.901346922E0,3.419664860E0,8.992282867E0
6.933292769E0,1.902126431E0,3.418092728E0,8.992715836E0
6.938292769E0,1.907292366E0,3.415198326E0,8.992722511E0
6.943292769E0,1.914225578E0,3.409910679E0,8.993254662E0
6.948292769E0,1.918374062E0,3.402648687E0,8.995121956E0
6.953292769E0,1.917496920E0,3.394855022E0,8.998252869E0
6.958292769E0,1.913344502E0,3.387524128E0,9.001899719E0
6.963292769E0,1.908540368E0,3.381118774E0,9.005325317E0
6.968292769E0,1.904252529E0,3.375561476E0,9.008317947E0
6.973292769E0,1.900200725E0,3.370740891E0,9.010978699E0
6.978292769E0,1.895849586E0,3.366650343E0,9.013423920E0
6.983292769E0,1.891095638E0,3.363223076E0,9.015701294E0
6.988292769E0,1.886379242E0,3.360588551E0,9.017671585E0
6.993292769E0,1.882158995E0,3.358661175E0,9.019271851E0
6.998292769E0,1.878494024E0,3.357423067E0,9.020496368E0
7.003292769E0,1.875400662E0,3.356741905E0,9.021394730E0
7.008292769E0,1.872752428E0,3.356259108E0,9.022124290E0
7.013292769E0,1.869941354E0,3.355865955E0,9.022852898E0
7.018292769E0,1.863856912E0,3.354619503E0,9.024575233E0
7.023292769E0,1.855074167E0,3.352458239E0,9.027187347E0
7.028292769E0,1.846762776E0,3.350354910E0,9.029671669E0
7.033292769E0,1.841683507E0,3.348531246E0,9.031385422E0
7.038292769E0,1.840200663E0,3.347099543E0,9.032217979E0
7.043292769E0,1.841212511E0,3.346201181E0,9.032344818E0
7.048292769E0,1.843377113E0,3.345700979E0,9.032088280E0
7.053292769E0,1.845281482E0,3.344944954E0,9.031980515E0
7.058292769E0,1.844818830E0,3.343273878E0,9.032693863E0
7.063292769E0,1.842249990E0,3.339716911E0,9.034533501E0
7.068292769E0,1.842153311E0,3.333044291E0,9.037016869E0
7.073292769E0,1.842399955E0,3.324185133E0,9.040228844E0
7.078292769E0,1.843560576E0,3.313694477E0,9.043843269E0
7.083292769E0,1.846225381E0,3.302282572E0,9.047472954E0
7.088292769E0,1.849321723E0,3.290684223E0,9.051066399E0
7.093292769E0,1.850795865E0,3.279531479E0,9.054811478E0
7.098292769E0,1.853736877E0,3.268223763E0,9.058297157E0
7.103292769E0,1.857736945E0,3.256803036E0,9.061591148E0
7.108292769E0,1.859142900E0,3.245908022E0,9.065211296E0
7.113292769E0,1.855430603E0,3.235747337E0,9.069602966E0
7.118292769E0,1.854513407E0,3.224867582E0,9.073665619E0
7.123292769E0,1.854817867E0,3.213813305E0,9.077524185E0
7.128292769E0,1.854348540E0,3.203391314E0,9.081302643E0
7.133292769E0,1.853472948E0,3.193856478E0,9.084839821E0
7.138292769E0,1.851922989E0,3.185368299E0,9.088135719E0
7.143292769E0,1.849248171E0,3.177910805E0,9.091288567E0
7.148292769E0,1.845340848E0,3.171155214E0,9.094441414E0
7.153292769E0,1.840935946E0,3.164764166E0,9.097560883E0
7.158292769E0,1.837243676E0,3.158301115E0,9.100552559E0
7.163292769E0,1.835325360E0,3.151458502E0,9.103311539E0
7.168292769E0,1.835108161E0,3.144478798E0,9.105768204E0
7.173292769E0,1.835696220E0,3.137558460E0,9.108036995E0
7.178292769E0,1.836984158E0,3.130893707E0,9.110070229E0
7.183292769E0,1.838575959E0,3.124238968E0,9.112032890E0
7.188292769E0,1.840309381E0,3.117553711E0,9.113973618E0
7.193292769E0,1.841959834E0,3.110857487E0,9.115927696E0
7.198292769E0,1.843572259E0,3.104339600E0,9.117822647E0
7.203292769E0,1.845368028E0,3.098111629E0,9.119578362E0
7.208292769E0,1.847231865E0,3.092497587E0,9.121107101E0
7.213292769E0,1.849511623E0,3.087897062E0,9.122202873E0
7.218292769E0,1.852221489E0,3.084475040E0,9.122811317E0
7.223292769E0,1.854822636E0,3.082314730E0,9.123012543E0
7.228292769E0,1.857400179E0,3.081321478E0,9.122823715E0
7.233292769E0,1.859964609E0,3.081180573E0,9.122348785E0
7.238292769E0,1.862477660E0,3.081737757E0,9.121647835E0
7.243292769E0,1.864875913E0,3.082652092E0,9.120849609E0
7.248292769E0,1.867832899E0,3.083427668E0,9.119982719E0
7.253292769E0,1.871695518E0,3.083820820E0,9.119056702E0
7.258292769E0,1.876242042E0,3.084167242E0,9.118004799E0
7.263292769E0,1.882054567E0,3.084542274E0,9.116680145E0
7.268292769E0,1.889163375E0,3.085183620E0,9.114993095E0
7.273292769E0,1.897202015E0,3.086116076E0,9.113006592E0
7.278292769E0,1.905812263E0,3.087446690E0,9.110759735E0
7.283292769E0,1.914591074E0,3.089080811E0,9.108365059E0
7.288292769E0,1.923236728E0,3.091006994E0,9.105890274E0
7.293292769E0,1.931460857E0,3.093080282E0,9.103445053E0
7.298292769E0,1.939855814E0,3.095166683E0,9.100949287E0
7.303292769E0,1.948336720E0,3.097049952E0,9.098496437E0
7.308292769E0,1.956651211E0,3.098494768E0,9.096220970E0
7.313292769E0,1.962339759E0,3.098789692E0,9.094895363E0
7.318292769E0,1.965937257E0,3.098469973E0,9.094226837E0
7.323292769E0,1.970886827E0,3.097741604E0,9.093403816E0
7.328292769E0,1.977356672E0,3.096499443E0,9.092421532E0
7.333292769E0,1.985750556E0,3.094796658E0,9.091172218E0
7.338292769E0,1.994399667E0,3.092638731E0,9.090013504E0
7.343292769E0,2.002379417E0,3.090131760E0,9.089111328E0
7.348292769E0,2.008185625E0,3.087717533E0,9.088650703E0
7.353292769E0,2.012789488E0,3.085347414E0,9.088437080E0
7.358292769E0,2.016823292E0,3.083049774E0,9.088322639E0
7.363292769E0,2.019418001E0,3.081176043E0,9.088381767E0
7.368292769E0,2.020117044E0,3.079750538E0,9.088710785E0
7.373292769E0,2.018886805E0,3.078950405E0,9.089255333E0
7.378292769E0,2.015815258E0,3.078495979E0,9.090089798E0
7.383292769E0,2.011679173E0,3.078215837E0,9.091100693E0
7.388292769E0,2.007676125E0,3.078136206E0,9.092013359E0
7.393292769E0,2.004492283E0,3.078535557E0,9.092579842E0
7.398292769E0,2.002354860E0,3.079945087E0,9.092575073E0
7.403292769E0,2.001351595E0,3.082482338E0,9.091935158E0
7.408292769E0,2.001627922E0,3.086338997E0,9.090566635E0
7.413292769E0,2.003174067E0,3.091255188E0,9.088554382E0
7.418292769E0,2.005841732E0,3.097146034E0,9.085960388E0
7.423292769E0,2.009397745E0,3.103747129E0,9.082921982E0
7.428292769E0,2.013674974E0,3.110839367E0,9.079547882E0
7.433292769E0,2.011103153E0,3.119427681E0,9.077170372E0
7.438292769E0,2.009383917E0,3.128132343E0,9.074554443E0
7.443292769E0,2.008270264E0,3.136807680E0,9.071805954E0
7.448292769E0,2.007364750E0,3.145466089E0,9.069007874E0
7.453292769E0,2.006757975E0,3.154263973E0,9.066086769E0
7.458292769E0,2.005666733E0,3.162884712E0,9.063323975E0
7.463292769E0,2.003964901E0,3.171600819E0,9.060653687E0
7.468292769E0,2.001637936E0,3.180442095E0,9.058069229E0
7.473292769E0,1.998682022E0,3.189376354E0,9.055580139E0
7.478292769E0,1.994996667E0,3.198814631E0,9.053063393E0
7.483292769E0,1.999923587E0,3.209303617E0,9.048263550E0
7.488292769E0,2.004630327E0,3.220489025E0,9.043246269E0
7.493292769E0,2.009293556E0,3.232180357E0,9.038038254E0
7.498292769E0,2.014132500E0,3.244152069E0,9.032670021E0
7.503292769E0,2.019343138E0,3.255985260E0,9.027247429E0
7.508292769E0,2.024622917E0,3.267758131E0,9.021809578E0
7.513292769E0,2.029498100E0,3.279592752E0,9.016418457E0
7.518292769E0,2.033645391E0,3.291738510E0,9.011056900E0
7.523292769E0,2.036616325E0,3.304440498E0,9.005734444E0
7.528292769E0,2.038542986E0,3.317912102E0,9.000343323E0
7.533292769E0,2.039089918E0,3.332140207E0,8.994961739E0
7.538292769E0,2.037841558E0,3.347066879E0,8.989702225E0
7.543292769E0,2.034465313E0,3.362414360E0,8.984736443E0
7.548292769E0,2.029160738E0,3.378087282E0,8.980056763E0
7.553292769E0,2.022196054E0,3.394014835E0,8.975621223E0
7.558292769E0,2.014078856E0,3.410016060E0,8.971380234E0
7.563292769E0,2.005255461E0,3.425803185E0,8.967341423E0
7.568292769E0,1.995847464E0,3.441424370E0,8.963458061E0
7.573292769E0,1.985915899E0,3.456846237E0,8.959729195E0
7.578292769E0,1.975654483E0,3.472237349E0,8.956045151E0
7.583292769E0,1.965271115E0,3.487670422E0,8.952332497E0
7.588292769E0,1.954575658E0,3.503070354E0,8.948659897E0
7.593292769E0,1.943194389E0,3.518356323E0,8.945141792E0
7.598292769E0,1.931381345E0,3.533258200E0,8.941825867E0
7.603292769E0,1.919589400E0,3.547669888E0,8.938657761E0
7.608292769E0,1.908075929E0,3.561576128E0,8.935592651E0
7.613292769E0,1.897201180E0,3.574998379E0,8.932546616E0
7.618292769E0,1.887029290E0,3.587709665E0,8.929604530E0
7.623292769E0,1.877848268E0,3.599913120E0,8.926629066E0
7.628292769E0,1.869750142E0,3.611704111E0,8.923564911E0
7.633292769E0,1.862561226E0,3.622979879E0,8.920496941E0
7.638292769E0,1.855702519E0,3.633729458E0,8.917553902E0
7.643292769E0,1.848867059E0,3.644037485E0,8.914766312E0
7.648292769E0,1.841964364E0,3.653982878E0,8.912124634E0
7.653292769E0,1.835185647E0,3.663595915E0,8.909575462E0
7.658292769E0,1.828001142E0,3.672782660E0,8.907271385E0
7.663292769E0,1.819907308E0,3.681432009E0,8.905357361E0
7.668292769E0,1.810469866E0,3.689631224E0,8.903886795E0
7.673292769E0,1.799191594E0,3.697580099E0,8.902875900E0
7.678292769E0,1.786156297E0,3.705595732E0,8.902168274E0
7.683292769E0,1.771656513E0,3.713829756E0,8.901633263E0
7.688292769E0,1.756011724E0,3.722244978E0,8.901219368E0
7.693292769E0,1.739180088E0,3.730642796E0,8.901008606E0
7.698292769E0,1.721353650E0,3.738875866E0,8.901018143E0
7.703292769E0,1.702702999E0,3.746927261E0,8.901220322E0
7.708292769E0,1.683194399E0,3.754745722E0,8.901635170E0
7.713292769E0,1.662998676E0,3.762220383E0,8.902276993E0
7.718292769E0,1.642551780E0,3.769408226E0,8.903031349E0
7.723292769E0,1.622146130E0,3.776021242E0,8.903970718E0
7.728292769E0,1.602132678E0,3.782140970E0,8.904995918E0
7.733292769E0,1.582495570E0,3.788002729E0,8.906015396E0
7.738292769E0,1.563351989E0,3.793931484E0,8.906874657E0
7.743292769E0,1.544877887E0,3.799888611E0,8.907557487E0
7.748292769E0,1.527403235E0,3.806017637E0,8.907955170E0
7.753292769E0,1.511471987E0,3.812317848E0,8.907979012E0
7.758292769E0,1.497950912E0,3.818767309E0,8.907499313E0
7.763292769E0,1.487329364E0,3.825131178E0,8.906548500E0
7.768292769E0,1.479951620E0,3.831286430E0,8.905132294E0
7.773292769E0,1.475919008E0,3.837083817E0,8.903305054E0
7.778292769E0,1.475609541E0,3.842378139E0,8.901072502E0
7.783292769E0,1.479043007E0,3.847183704E0,8.898427010E0
7.788292769E0,1.486030340E0,3.851476669E0,8.895404816E0
7.793292769E0,1.496320248E0,3.855277300E0,8.892033577E0
7.798292769E0,1.509711862E0,3.858572721E0,8.888339043E0
7.803292769E0,1.524769068E0,3.861703634E0,8.884407997E0
7.808292769E0,1.539239049E0,3.865722179E0,8.880164146E0
7.813292769E0,1.551873446E0,3.871684313E0,8.875367165E0
7.818292769E0,1.563341737E0,3.879893780E0,8.869767189E0
7.823292769E0,1.573832393E0,3.889394999E0,8.863749504E0
7.828292769E0,1.582549691E0,3.899424076E0,8.857788086E0
7.833292769E0,1.589195490E0,3.909516096E0,8.852148056E0
7.838292769E0,1.594149947E0,3.919497728E0,8.846841812E0
7.843292769E0,1.598668337E0,3.929385662E0,8.841639519E0
7.848292769E0,1.603470802E0,3.938848019E0,8.836557388E0
7.853292769E0,1.608797312E0,3.947704554E0,8.831635475E0
7.858292769E0,1.614854574E0,3.955919027E0,8.826852798E0
7.863292769E0,1.622384310E0,3.963274240E0,8.822172165E0
7.868292769E0,1.631492496E0,3.969692469E0,8.817605019E0
7.873292769E0,1.642368197E0,3.975074291E0,8.813159943E0
7.878292769E0,1.654796243E0,3.979235172E0,8.808957100E0
7.883292769E0,1.668523073E0,3.982127428E0,8.805060387E0
7.888292769E0,1.683453441E0,3.983896732E0,8.801417351E0
7.893292769E0,1.700111389E0,3.984681129E0,8.797859192E0
7.898292769E0,1.718705654E0,3.984634399E0,8.794266701E0
7.903292769E0,1.739685774E0,3.984356880E0,8.790266037E0
7.908292769E0,1.763263822E0,3.984476089E0,8.785512924E0
7.913292769E0,1.793525815E0,3.986327648E0,8.778545380E0
7.918292769E0,1.838074565E0,3.993472338E0,8.766074181E0
7.923292769E0,1.894178391E0,4.006190300E0,8.748309135E0
7.928292769E0,1.958425522E0,4.022388458E0,8.726702690E0
7.933292769E0,2.024252892E0,4.040176392E0,8.703433037E0
7.938292769E0,2.082700014E0,4.057001114E0,8.681791306E0
7.943292769E0,2.131472588E0,4.071465492E0,8.663162231E0
7.948292769E0,2.172193289E0,4.082804203E0,8.647697449E0
7.953292769E0,2.206435919E0,4.090493202E0,8.635386467E0
7.958292769E0,2.235395908E0,4.094645500E0,8.625964165E0
7.963292769E0,2.259524822E0,4.095866203E0,8.619095802E0
7.968292769E0,2.277517319E0,4.095088959E0,8.614728928E0
7.973292769E0,2.286969423E0,4.093336105E0,8.613058090E0
7.978292769E0,2.285824060E0,4.091153622E0,8.614398003E0
7.983292769E0,2.273732424E0,4.089012623E0,8.618614197E0
7.988292769E0,2.252846003E0,4.087591171E0,8.624771118E0
7.993292769E0,2.226264238E0,4.087340355E0,8.631789207E0
7.998292769E0,2.196803331E0,4.088717461E0,8.638682365E0
8.003292769E0,2.166222334E0,4.092054844E0,8.644822121E0
8.008292769E0,2.135487556E0,4.097462177E0,8.649906158E0
8.013292769E0,2.104224920E0,4.104360104E0,8.654296875E0
8.018292769E0,2.071995974E0,4.111973286E0,8.658457756E0
8.023292769E0,2.038874149E0,4.119482517E0,8.662750244E0
8.028292769E0,2.004933596E0,4.125939846E0,8.667597771E0
8.033292769E0,1.970220804E0,4.130508423E0,8.673379898E0
8.038292769E0,1.934425116E0,4.132717133E0,8.680381775E0
8.043292769E0,1.896594405E0,4.132914066E0,8.688632965E0
8.048292769E0,1.855463028E0,4.131403923E0,8.698226929E0
8.053292769E0,1.810580254E0,4.128095627E0,8.709248543E0
8.058292769E0,1.763721943E0,4.122357845E0,8.721572876E0
8.063292769E0,1.718581796E0,4.113802910E0,8.734615326E0
8.068292769E0,1.677657008E0,4.104617119E0,8.746884346E0
8.073292769E0,1.647192359E0,4.094295502E0,8.757505417E0
8.078292769E0,1.629307032E0,4.081552982E0,8.766794205E0
8.083292769E0,1.620972633E0,4.066098213E0,8.775515556E0
8.088292769E0,1.618108988E0,4.047719002E0,8.784535408E0
8.093292769E0,1.616229296E0,4.026322842E0,8.794709206E0
8.098292769E0,1.611896634E0,4.002080917E0,8.806561470E0
8.103292769E0,1.603103876E0,3.975199699E0,8.820330620E0
8.108292769E0,1.589872122E0,3.945733070E0,8.835943222E0
8.113292769E0,1.574044824E0,3.913864851E0,8.852933884E0
8.118292769E0,1.562930822E0,3.880435228E0,8.869602203E0
8.123292769E0,1.557821393E0,3.846362114E0,8.885330200E0
8.128292769E0,1.561346173E0,3.811483860E0,8.899728775E0
8.133292769E0,1.573529363E0,3.775466442E0,8.912925720E0
8.138292769E0,1.592940092E0,3.738628387E0,8.924997330E0
8.143292769E0,1.616964340E0,3.701222181E0,8.936262131E0
8.148292769E0,1.643628120E0,3.663372278E0,8.946988106E0
8.153292769E0,1.671859026E0,3.625259161E0,8.957275391E0
8.158292769E0,1.702163935E0,3.587033033E0,8.966952324E0
8.163292769E0,1.731138110E0,3.547661304E0,8.977062225E0
8.168292769E0,1.758142471E0,3.506556273E0,8.987957954E0
8.173292769E0,1.783842087E0,3.463473797E0,8.999590874E0
8.178292769E0,1.807684779E0,3.418432951E0,9.012045860E0
8.183292769E0,1.829044819E0,3.371327877E0,9.025470734E0
8.188292769E0,1.848629951E0,3.322155476E0,9.039702415E0
8.193292769E0,1.867594838E0,3.270900488E0,9.054483414E0
8.198292769E0,1.886829495E0,3.217780590E0,9.069518089E0
8.203292769E0,1.906898141E0,3.163474560E0,9.084413528E0
8.208292769E0,1.928305387E0,3.108880043E0,9.098730087E0
8.213292769E0,1.950892806E0,3.055427790E0,9.112011909E0
8.218292769E0,1.974239707E0,3.004462004E0,9.123923302E0
8.223292769E0,1.998705506E0,2.957140684E0,9.134050369E0
8.228292769E0,2.024793625E0,2.914602518E0,9.141974449E0
8.233292769E0,2.053113937E0,2.877619505E0,9.147372246E0
8.238292769E0,2.084127665E0,2.847080231E0,9.149914742E0
8.243292769E0,2.117958069E0,2.823311806E0,9.149511337E0
8.248292769E0,2.156376123E0,2.805970430E0,9.145871162E0
8.253292769E0,2.203505039E0,2.793858051E0,9.138342857E0
8.258292769E0,2.261165619E0,2.787100792E0,9.126313210E0
8.263292769E0,2.325683355E0,2.786469460E0,9.110279083E0
8.268292769E0,2.391789198E0,2.792221785E0,9.091382027E0
8.273292769E0,2.455510139E0,2.803901911E0,9.070775986E0
8.278292769E0,2.515324354E0,2.820923090E0,9.049083710E0
8.283292769E0,2.573301315E0,2.842636347E0,9.025958061E0
8.288292769E0,2.632791281E0,2.869290113E0,9.000331879E0
8.293292769E0,2.695353031E0,2.901320219E0,8.971499443E0
8.298292769E0,2.760595083E0,2.938462257E0,8.939515114E0
8.303292769E0,2.827257872E0,2.980443001E0,8.904715538E0
8.308292769E0,2.895562410E0,3.026875257E0,8.867024422E0
8.313292769E0,2.966359854E0,3.076794624E0,8.826349258E0
8.318292769E0,3.039445400E0,3.129467487E0,8.782857895E0
8.323292769E0,3.114607334E0,3.184267759E0,8.736706734E0
8.328292769E0,3.191810846E0,3.240432501E0,8.688056946E0
8.333292769E0,3.268736601E0,3.297245502E0,8.637935638E0
8.338292769E0,3.340759754E0,3.354122162E0,8.588338852E0
8.343292769E0,3.404123545E0,3.411046743E0,8.540906906E0
8.348292769E0,3.457053661E0,3.468317032E0,8.496466637E0
8.353292769E0,3.499112368E0,3.526343822E0,8.455265045E0
8.358292769E0,3.531302929E0,3.584941149E0,8.417154312E0
8.363292769E0,3.554235220E0,3.643033504E0,8.382487297E0
8.368292769E0,3.570316792E0,3.698518753E0,8.351298332E0
8.373292769E0,3.582682848E0,3.748391628E0,8.323720932E0
8.378292769E0,3.594117403E0,3.788729668E0,8.300495148E0
8.383292769E0,3.608081818E0,3.818498135E0,8.280772209E0
8.388292769E0,3.620513201E0,3.839090347E0,8.265812874E0
8.393292769E0,3.629491091E0,3.852633953E0,8.255566597E0
8.398292769E0,3.631638288E0,3.861060381E0,8.250685692E0
8.403292769E0,3.624345303E0,3.864554405E0,8.252256393E0
8.408292769E0,3.604764700E0,3.861680984E0,8.262171745E0
8.413292769E0,3.575992107E0,3.852007151E0,8.279172897E0
8.418292769E0,3.543708563E0,3.836262226E0,8.300337791E0
8.423292769E0,3.509349823E0,3.815803289E0,8.324332237E0
8.428292769E0,3.473164558E0,3.790782690E0,8.350897789E0
8.433292769E0,3.437288761E0,3.763511419E0,8.378032684E0
8.438292769E0,3.402643204E0,3.736163139E0,8.404372215E0
8.443292769E0,3.369569063E0,3.709272146E0,8.429572105E0
8.448292769E0,3.337618828E0,3.682878256E0,8.453821182E0
8.453292769E0,3.305229425E0,3.655646324E0,8.478330612E0
8.458292769E0,3.271829128E0,3.626479626E0,8.503773689E0
8.463292769E0,3.237451077E0,3.595972776E0,8.529846191E0
8.468292769E0,3.202282906E0,3.565582275E0,8.555839539E0
8.473292769E0,3.166630268E0,3.536626577E0,8.581089973E0
8.478292769E0,3.131008863E0,3.509783506E0,8.605149269E0
8.483292769E0,3.095456839E0,3.485255480E0,8.627950668E0
8.488292769E0,3.060296297E0,3.462598562E0,8.649588585E0
8.493292769E0,3.027263403E0,3.441265345E0,8.669703484E0
8.498292769E0,2.999056339E0,3.421457767E0,8.687328339E0
8.503292769E0,2.977698088E0,3.403547764E0,8.701699257E0
8.508292769E0,2.962933779E0,3.388344288E0,8.712665558E0
8.513292769E0,2.954209805E0,3.376398802E0,8.720261574E0
8.518292769E0,2.948951006E0,3.367747784E0,8.725385666E0
8.523292769E0,2.944066286E0,3.361591816E0,8.729408264E0
8.528292769E0,2.938540936E0,3.357091427E0,8.733000755E0
8.533292769E0,2.934791327E0,3.354123354E0,8.735402107E0
8.538292769E0,2.937395811E0,3.353927135E0,8.734601974E0
8.543292769E0,2.947311640E0,3.357686520E0,8.729815483E0
8.548292769E0,2.963186026E0,3.366014481E0,8.721230507E0
8.553292769E0,2.983517885E0,3.378921986E0,8.709300041E0
8.558292769E0,3.008228064E0,3.396235466E0,8.694050789E0
8.563292769E0,3.040492535E0,3.417273760E0,8.674561501E0
8.568292769E0,3.083824873E0,3.441510916E0,8.649647713E0
8.573292769E0,3.137488365E0,3.468690395E0,8.619440079E0
8.578292769E0,3.197128057E0,3.499558449E0,8.584977150E0
8.583292769E0,3.262121439E0,3.534497023E0,8.546126366E0
8.588292769E0,3.330532312E0,3.573059082E0,8.503598213E0
8.593292769E0,3.401646614E0,3.613951206E0,8.458045959E0
8.598292769E0,3.476857185E0,3.655375242E0,8.409523964E0
8.603292769E0,3.558290005E0,3.695635319E0,8.357705116E0
8.608292769E0,3.647698164E0,3.733430624E0,8.302179337E0
8.613292769E0,3.746517181E0,3.767997980E0,8.242341042E0
8.618292769E0,3.855549812E0,3.799013615E0,8.177568436E0
8.623292769E0,3.972192764E0,3.826924086E0,8.108434677E0
8.628292769E0,4.093747139E0,3.852137327E0,8.035711288E0
8.633292769E0,4.216642380E0,3.874369144E0,7.961128712E0
8.638292769E0,4.337587833E0,3.893753529E0,7.886343002E0
8.643292769E0,4.454735279E0,3.909752607E0,7.812781334E0
8.648292769E0,4.569037437E0,3.921602249E0,7.740499496E0
8.653292769E0,4.682543755E0,3.928419113E0,7.668878078E0
8.658292769E0,4.796846867E0,3.929836988E0,7.597172260E0
8.663292769E0,4.911423206E0,3.925869226E0,7.525679588E0
8.668292769E0,5.024452209E0,3.916566610E0,7.455586910E0
8.673292769E0,5.135044575E0,3.902264118E0,7.387423515E0
8.678292769E0,5.243258953E0,3.883906841E0,7.320784569E0
8.683292769E0,5.348773479E0,3.862863541E0,7.255293846E0
8.688292769E0,5.451135635E0,3.841176748E0,7.190330982E0
8.693292769E0,5.549665928E0,3.821206570E0,7.125304222E0
8.698292769E0,5.643617153E0,3.804716349E0,7.060036182E0
8.703292769E0,5.732093811E0,3.792732477E0,6.994902611E0
8.708292769E0,5.816048622E0,3.786470652E0,6.928679943E0
8.713292769E0,5.893766880E0,3.785559654E0,6.863194466E0
8.718292769E0,5.966039181E0,3.788958549E0,6.798569202E0
8.723292769E0,6.034430981E0,3.796282053E0,6.733816147E0
8.728292769E0,6.101484776E0,3.807833195E0,6.666534424E0
8.733292769E0,6.169002056E0,3.823803425E0,6.594871521E0
8.738292769E0,6.237469196E0,3.844117641E0,6.518214226E0
8.743292769E0,6.306184292E0,3.868655205E0,6.437075138E0
8.748292769E0,6.373949051E0,3.897371769E0,6.352452278E0
8.753292769E0,6.440135002E0,3.930058002E0,6.264958858E0
8.758292769E0,6.504787445E0,3.966243267E0,6.174709797E0
8.763292769E0,6.571112633E0,4.005681038E0,6.078271389E0
8.768292769E0,6.643329144E0,4.048956871E0,5.970135212E0
8.773292769E0,6.720087528E0,4.095657825E0,5.851188183E0
8.778292769E0,6.800489426E0,4.144485950E0,5.722496986E0
8.783292769E0,6.885414124E0,4.194446087E0,5.582838058E0
8.788292769E0,6.975657940E0,4.244811058E0,5.430669308E0
8.793292769E0,7.071471214E0,4.295082569E0,5.264688015E0
8.798292769E0,7.172137737E0,4.345014095E0,5.084453583E0
8.803292769E0,7.276407242E0,4.394910336E0,4.889688492E0
8.808292769E0,7.382677078E0,4.445376873E0,4.680287838E0
8.813292769E0,7.488922596E0,4.496754169E0,4.457086563E0
8.818292769E0,7.592928886E0,4.548901081E0,4.222002983E0
8.823292769E0,7.693576336E0,4.601275444E0,3.975868702E0
8.828292769E0,7.790822506E0,4.652876377E0,3.718091011E0
8.833292769E0,7.885392666E0,4.702038288E0,3.446998119E0
8.838292769E0,7.977976799E0,4.746650219E0,3.160945654E0
8.843292769E0,8.068612099E0,4.784723759E0,2.859076023E0
8.848292769E0,8.156536102E0,4.814587593E0,2.541860819E0
8.853292769E0,8.240165710E0,4.835083485E0,2.211795568E0
8.858292769E0,8.317834854E0,4.845455170E0,1.872318268E0
8.863292769E0,8.388215065E0,4.845399380E0,1.526543379E0
8.868292769E0,8.450256348E0,4.835366726E0,1.175915599E0
8.873292769E0,8.502740860E0,4.816630363E0,8.208900094E-1
8.878292769E0,8.544121742E0,4.791090012E0,4.624150991E-1
8.883292769E0,8.572909355E0,4.760801792E0,1.019180790E-1
8.888292769E0,8.587841034E0,4.727818489E0,-2.590393126E-1
8.893292769E0,8.588160515E0,4.693610191E0,-6.196016073E-1
8.898292769E0,8.573437691E0,4.658896923E0,-9.804195166E-1
8.903292769E0,8.543285370E0,4.623982430E0,-1.342176318E0
8.908292769E0,8.497212410E0,4.589164257E0,-1.705097437E0
8.913292769E0,8.435515404E0,4.553599834E0,-2.068138599E0
8.918292769E0,8.359391212E0,4.515858173E0,-2.428580046E0
8.923292769E0,8.271197319E0,4.473863125E0,-2.782485962E0
8.928292769E0,8.173632622E0,4.425504208E0,-3.126823902E0
8.933292769E0,8.068983078E0,4.369374275E0,-3.459837437E0
8.938292769E0,7.958301067E0,4.305764198E0,-3.781035423E0
8.943292769E0,7.841899395E0,4.235593796E0,-4.090812206E0
8.948292769E0,7.720686913E0,4.160188198E0,-4.387964249E0
8.953292769E0,7.595623493E0,4.080514908E0,-4.671861649E0
8.958292769E0,7.467379570E0,3.997052908E0,-4.942892551E0
8.963292769E0,7.337154388E0,3.910191059E0,-5.200669289E0
8.968292769E0,7.206630230E0,3.820883751E0,-5.443869591E0
8.973292769E0,7.077863693E0,3.730098248E0,-5.671031475E0
8.978292769E0,6.952922344E0,3.638685703E0,-5.881090641E0
8.983292769E0,6.833234310E0,3.547731400E0,-6.073788166E0
8.988292769E0,6.719913006E0,3.458835363E0,-6.248968601E0
8.993292769E0,6.613846779E0,3.374279261E0,-6.406376839E0
8.998292769E0,6.515810490E0,3.295515776E0,-6.546309948E0
9.003292769E0,6.425372601E0,3.223150492E0,-6.670552731E0
9.008292769E0,6.341383457E0,3.157177687E0,-6.781553745E0
9.013292769E0,6.262832165E0,3.096691847E0,-6.881701946E0
9.018292769E0,6.188375473E0,3.039583921E0,-6.973903656E0
9.023292769E0,6.115584850E0,2.983445644E0,-7.061802864E0
9.028292769E0,6.042149544E0,2.926429987E0,-7.148344040E0
9.033292769E0,5.966594696E0,2.867626905E0,-7.235112667E0
9.038292769E0,5.888517857E0,2.807041883E0,-7.322312355E0
9.043292769E0,5.808266163E0,2.745355606E0,-7.409280777E0
9.048292769E0,5.726338387E0,2.683694363E0,-7.495145798E0
9.053292769E0,5.642673969E0,2.623181581E0,-7.579547882E0
9.058292769E0,5.556959152E0,2.564985991E0,-7.662339687E0
9.063292769E0,5.469523430E0,2.509408951E0,-7.743227482E0
9.068292769E0,5.381151676E0,2.455577135E0,-7.822003365E0
9.073292769E0,5.292178154E0,2.401659250E0,-7.899067402E0
9.078292769E0,5.201546192E0,2.345789433E0,-7.975687027E0
9.083292769E0,5.108603477E0,2.286225319E0,-8.052684784E0
9.088292769E0,5.014037132E0,2.221444607E0,-8.129882812E0
9.093292769E0,4.918624878E0,2.151048660E0,-8.206735611E0
9.098292769E0,4.822425842E0,2.076153517E0,-8.282763481E0
9.103292769E0,4.726009369E0,1.998487115E0,-8.357109070E0
9.108292769E0,4.629371643E0,1.919091702E0,-8.429495811E0
9.113292769E0,4.532194614E0,1.838628769E0,-8.499943733E0
9.118292769E0,4.433581829E0,1.757618189E0,-8.568811417E0
9.123292769E0,4.332447529E0,1.675926566E0,-8.636640549E0
9.128292769E0,4.228353500E0,1.593286157E0,-8.703611374E0
9.133292769E0,4.121229649E0,1.509560466E0,-8.769668579E0
9.138292769E0,4.010769844E0,1.424679399E0,-8.834839821E0
9.143292769E0,3.897130489E0,1.339167476E0,-8.898841858E0
9.148292769E0,3.780951262E0,1.253491044E0,-8.961225510E0
9.153292769E0,3.663049459E0,1.168383002E0,-9.021492958E0
9.158292769E0,3.544021606E0,1.084433556E0,-9.079334259E0
9.163292769E0,3.424530268E0,1.001431704E0,-9.134555817E0
9.168292769E0,3.304482222E0,9.187620878E-1,-9.187309265E0
9.173292769E0,3.184135914E0,8.362183571E-1,-9.237554550E0
9.178292769E0,3.064822674E0,7.542477846E-1,-9.284845352E0
9.183292769E0,2.948761702E0,6.735365391E-1,-9.328534126E0
9.188292769E0,2.838146925E0,5.954295397E-1,-9.368071556E0
9.193292769E0,2.733785391E0,5.213149786E-1,-9.403459549E0
9.198292769E0,2.634911776E0,4.522879124E-1,-9.435202599E0
9.203292769E0,2.540272951E0,3.889364302E-1,-9.463938713E0
9.208292769E0,2.448947430E0,3.313131630E-1,-9.490166664E0
9.213292769E0,2.360353231E0,2.789402306E-1,-9.514269829E0
9.218292769E0,2.274837494E0,2.309553921E-1,-9.536360741E0
9.223292769E0,2.192803860E0,1.867487729E-1,-9.556522369E0
9.228292769E0,2.114979267E0,1.460064352E-1,-9.574754715E0
9.233292769E0,2.042514086E0,1.085203514E-1,-9.590971947E0
9.238292769E0,1.975802302E0,7.399182767E-2,-9.605264664E0
9.243292769E0,1.914512992E0,4.237372056E-2,-9.617859840E0
9.248292769E0,1.857097268E0,1.349869370E-2,-9.629195213E0
9.253292769E0,1.802124262E0,-1.332061738E-2,-9.639634132E0
9.258292769E0,1.748229384E0,-3.869325668E-2,-9.649486542E0
9.263292769E0,1.694816709E0,-6.262911111E-2,-9.658885002E0
9.268292769E0,1.642273426E0,-8.468298614E-2,-9.667789459E0
9.273292769E0,1.591322541E0,-1.046029031E-1,-9.676111221E0
9.278292769E0,1.542844892E0,-1.221817806E-1,-9.683753014E0
9.283292769E0,1.497735739E0,-1.375837028E-1,-9.690627098E0
9.288292769E0,1.456266165E0,-1.515575498E-1,-9.696737289E0
9.293292769E0,1.417891502E0,-1.647407860E-1,-9.702207565E0
9.298292769E0,1.381035447E0,-1.773303747E-1,-9.707301140E0
9.303292769E0,1.344058275E0,-1.892252862E-1,-9.712265015E0
9.308292769E0,1.305826068E0,-2.000194490E-1,-9.717263222E0
9.313292769E0,1.266024947E0,-2.093086392E-1,-9.722332954E0
9.318292769E0,1.225033760E0,-2.170309275E-1,-9.727414131E0
9.323292769E0,1.183887839E0,-2.233515531E-1,-9.732363701E0
9.328292769E0,1.144142151E0,-2.285801917E-1,-9.736994743E0
9.333292769E0,1.107658982E0,-2.327684313E-1,-9.741113663E0
9.338292769E0,1.075591087E0,-2.363908291E-1,-9.744619370E0
9.343292769E0,1.048026919E0,-2.403056175E-1,-9.747527122E0
9.348292769E0,1.024244070E0,-2.449008375E-1,-9.749940872E0
9.353292769E0,1.003067851E0,-2.501518726E-1,-9.752009392E0
9.358292769E0,9.834269881E-1,-2.557257116E-1,-9.753864288E0
9.363292769E0,9.645045996E-1,-2.614292800E-1,-9.755602837E0
9.368292769E0,9.443523288E-1,-2.681038082E-1,-9.757391930E0
9.373292769E0,9.203634262E-1,-2.770978510E-1,-9.759433746E0
9.378292769E0,8.905178905E-1,-2.899063826E-1,-9.761830330E0
9.383292769E0,8.533263803E-1,-3.073469996E-1,-9.764616966E0
9.388292769E0,8.092445731E-1,-3.287811279E-1,-9.767671585E0
9.393292769E0,7.608706355E-1,-3.531521559E-1,-9.770708084E0
9.398292769E0,7.110192776E-1,-3.787687719E-1,-9.773503304E0
9.403292769E0,6.616158485E-1,-4.042980373E-1,-9.775950432E0
9.408292769E0,6.145676374E-1,-4.290298522E-1,-9.777966499E0
9.413292769E0,5.708801746E-1,-4.524317086E-1,-9.779559135E0
9.418292769E0,5.320178866E-1,-4.741252661E-1,-9.780723572E0
9.423292769E0,4.974279702E-1,-4.941746593E-1,-9.781551361E0
9.428292769E0,4.660458863E-1,-5.127582550E-1,-9.782139778E0
9.433292769E0,4.374494255E-1,-5.296010375E-1,-9.782563210E0
9.438292769E0,4.115285575E-1,-5.438986421E-1,-9.782902718E0
9.443292769E0,3.879725933E-1,-5.552890897E-1,-9.783226013E0
9.448292769E0,3.672544360E-1,-5.636513829E-1,-9.783547401E0
9.453292769E0,3.497629464E-1,-5.690202713E-1,-9.783877373E0
9.458292769E0,3.356743455E-1,-5.715883374E-1,-9.784221649E0
9.463292769E0,3.243368864E-1,-5.718376040E-1,-9.784588814E0
9.468292769E0,3.144064248E-1,-5.705760717E-1,-9.784987450E0
9.473292769E0,3.045817316E-1,-5.687347651E-1,-9.785405159E0
9.478292769E0,2.948674560E-1,-5.667200089E-1,-9.785820007E0
9.483292769E0,2.852166295E-1,-5.648673177E-1,-9.786212921E0
9.488292769E0,2.754530609E-1,-5.634763837E-1,-9.786572456E0
9.493292769E0,2.645913959E-1,-5.632475019E-1,-9.786886215E0
9.498292769E0,2.527551949E-1,-5.645887852E-1,-9.787120819E0
9.503292769E0,2.401551604E-1,-5.673635006E-1,-9.787277222E0
9.508292769E0,2.225073129E-1,-5.693289638E-1,-9.787581444E0
9.513292769E0,1.988908648E-1,-5.655546188E-1,-9.788308144E0
9.518292769E0,1.784131825E-1,-5.600864887E-1,-9.789017677E0
9.523292769E0,1.605816483E-1,-5.528478622E-1,-9.789737701E0
9.528292769E0,1.500485390E-1,-5.399279594E-1,-9.790625572E0
9.533292769E0,1.388531774E-1,-5.273206830E-1,-9.791477203E0
9.538292769E0,1.212494448E-1,-5.184562206E-1,-9.792184830E0
9.543292769E0,9.818398952E-2,-5.122430325E-1,-9.792770386E0
9.548292769E0,7.425637543E-2,-5.066761374E-1,-9.793271065E0
9.553292769E0,5.573609471E-2,-5.007535219E-1,-9.793698311E0
9.558292769E0,4.640436545E-2,-4.945174158E-1,-9.794063568E0
9.563292769E0,4.577173293E-2,-4.884171188E-1,-9.794373512E0
9.568292769E0,5.050738528E-2,-4.826131761E-1,-9.794636726E0
9.573292769E0,5.616066605E-2,-4.771223366E-1,-9.794875145E0
9.578292769E0,5.719395727E-2,-4.717121124E-1,-9.795131683E0
9.583292769E0,5.200202391E-2,-4.669603109E-1,-9.795389175E0
9.588292769E0,4.083394259E-2,-4.629728794E-1,-9.795630455E0
9.593292769E0,2.294285782E-2,-4.598899186E-1,-9.795833588E0
9.598292769E0,5.341492943E-4,-4.569395781E-1,-9.795998573E0
9.603292769E0,-2.513476647E-2,-4.540923536E-1,-9.796099663E0
9.608292769E0,-5.401348323E-2,-4.511871636E-1,-9.796116829E0
9.613292769E0,-8.385630697E-2,-4.477334619E-1,-9.796065331E0
9.618292769E0,-1.136412621E-1,-4.448562562E-1,-9.795896530E0
9.623292769E0,-1.402513981E-1,-4.419853091E-1,-9.795680046E0
9.628292769E0,-1.605406404E-1,-4.366466403E-1,-9.795609474E0
9.633292769E0,-1.751251817E-1,-4.284687042E-1,-9.795719147E0
9.638292769E0,-1.883438230E-1,-4.199230969E-1,-9.795845032E0
9.643292769E0,-1.974963546E-1,-4.108914137E-1,-9.796048164E0
9.648292769E0,-1.971631497E-1,-4.004391432E-1,-9.796486855E0
9.653292769E0,-1.983715296E-1,-3.886920512E-1,-9.796936035E0
9.658292769E0,-1.997427642E-1,-3.734023273E-1,-9.797502518E0
9.663292769E0,-2.006913573E-1,-3.562885523E-1,-9.798121452E0
9.668292769E0,-2.016269565E-1,-3.374424875E-1,-9.798768997E0
9.673292769E0,-2.024863362E-1,-3.181512654E-1,-9.799395561E0
9.678292769E0,-2.033629417E-1,-2.994200885E-1,-9.799968719E0
9.683292769E0,-2.072374225E-1,-2.809554338E-1,-9.800434113E0
9.688292769E0,-2.159286439E-1,-2.625448406E-1,-9.800756454E0
9.693292769E0,-2.146683186E-1,-2.528655231E-1,-9.801038742E0
9.698292769E0,-2.019841671E-1,-2.572677433E-1,-9.801193237E0
9.703292769E0,-2.026460916E-1,-2.566605210E-1,-9.801196098E0
9.708292769E0,-2.023122013E-1,-2.563939393E-1,-9.801209450E0
9.713292769E0,-2.031351328E-1,-2.567213774E-1,-9.801184654E0
9.718292769E0,-2.036384642E-1,-2.566860616E-1,-9.801174164E0
9.723292769E0,-2.042554617E-1,-2.567872107E-1,-9.801158905E0
9.728292769E0,-2.042428851E-1,-2.565591335E-1,-9.801165581E0
9.733292769E0,-2.043694407E-1,-2.564637363E-1,-9.801165581E0
9.738292769E0,-2.045310885E-1,-2.561144829E-1,-9.801171303E0
9.743292769E0,-2.043128312E-1,-2.555182278E-1,-9.801192284E0
9.748292769E0,-2.043998986E-1,-2.552679479E-1,-9.801196098E0
9.753292769E0,-2.038641870E-1,-2.544565499E-1,-9.801228523E0
9.758292769E0,-2.043429315E-1,-2.541855872E-1,-9.801225662E0
9.763292769E0,-2.048104703E-1,-2.540160120E-1,-9.801218987E0
9.768292769E0,-2.056903988E-1,-2.538073361E-1,-9.801207542E0
9.773292769E0,-2.061276585E-1,-2.536128163E-1,-9.801202774E0
9.778292769E0,-2.066291571E-1,-2.533529699E-1,-9.801198959E0
9.783292769E0,-2.068527043E-1,-2.532094419E-1,-9.801198006E0
9.788292769E0,-2.070676237E-1,-2.532471120E-1,-9.801192284E0
9.793292769E0,-2.071783841E-1,-2.532313764E-1,-9.801191330E0
9.798292769E0,-2.072545290E-1,-2.533709109E-1,-9.801185608E0
9.803292769E0,-2.074292451E-1,-2.533816993E-1,-9.801181793E0
9.808292769E0,-2.078220397E-1,-2.532189190E-1,-9.801177025E0
9.813292769E0,-2.081619054E-1,-2.530131042E-1,-9.801176071E0
9.818292769E0,-2.084130943E-1,-2.528035939E-1,-9.801175117E0
9.823292769E0,-2.087452859E-1,-2.526265085E-1,-9.801172256E0
9.828292769E0,-2.090839893E-1,-2.525303960E-1,-9.801168442E0
9.833292769E0,-2.094189525E-1,-2.524492741E-1,-9.801162720E0
9.838292769E0,-2.096983045E-1,-2.525019348E-1,-9.801156044E0
9.843292769E0,-2.100113034E-1,-2.523869872E-1,-9.801152229E0
9.848292769E0,-2.102567405E-1,-2.522799075E-1,-9.801150322E0
9.853292769E0,-2.102544755E-1,-2.520638108E-1,-9.801155090E0
9.858292769E0,-2.102260888E-1,-2.518064082E-1,-9.801162720E0
9.863292769E0,-2.100820392E-1,-2.516067624E-1,-9.801170349E0
9.868292769E0,-2.098779529E-1,-2.514196634E-1,-9.801179886E0
9.873292769E0,-2.097511739E-1,-2.514328659E-1,-9.801182747E0
9.878292769E0,-2.098454386E-1,-2.514272928E-1,-9.801180840E0
9.883292769E0,-2.101518363E-1,-2.514438033E-1,-9.801173210E0
9.888292769E0,-2.104823887E-1,-2.512738407E-1,-9.801171303E0
9.893292769E0,-2.109040469E-1,-2.511218786E-1,-9.801165581E0
9.898292769E0,-2.112022787E-1,-2.506646514E-1,-9.801170349E0
9.903292769E0,-2.114361525E-1,-2.503839135E-1,-9.801173210E0
9.908292769E0,-2.113601565E-1,-2.500824332E-1,-9.801182747E0
9.913292769E0,-2.113293409E-1,-2.499866486E-1,-9.801185608E0
9.918292769E0,-2.111279815E-1,-2.499393225E-1,-9.801190376E0
9.923292769E0,-2.110587656E-1,-2.499184161E-1,-9.801192284E0
9.928292769E0,-2.109951824E-1,-2.498512417E-1,-9.801196098E0
9.933292769E0,-2.109981179E-1,-2.496734113E-1,-9.801200867E0
9.938292769E0,-2.109750062E-1,-2.492485344E-1,-9.801212311E0
9.943292769E0,-2.110120952E-1,-2.490805238E-1,-9.801215172E0
9.948292769E0,-2.096893936E-1,-2.477248013E-1,-9.801277161E0
9.953292769E0,-2.076584101E-1,-2.466739565E-1,-9.801347733E0
9.958292769E0,-2.053365558E-1,-2.465522587E-1,-9.801400185E0
9.963292769E0,-2.024798244E-1,-2.469010204E-1,-9.801449776E0
9.968292769E0,-1.991482377E-1,-2.475008667E-1,-9.801503181E0
9.973292769E0,-1.959596127E-1,-2.479745597E-1,-9.801555634E0
9.978292769E0,-1.942505687E-1,-2.478282899E-1,-9.801592827E0
9.983292769E0,-1.934319735E-1,-2.469975203E-1,-9.801630974E0
9.988292769E0,-1.931130439E-1,-2.454643101E-1,-9.801675797E0
9.993292769E0,-1.924916953E-1,-2.439621389E-1,-9.801725388E0
9.998292769E0,-1.912820190E-1,-2.429026216E-1,-9.801774979E0
1.000329277E1,-1.884046942E-1,-2.425868809E-1,-9.801838875E0
1.000829277E1,-1.846187115E-1,-2.429259866E-1,-9.801902771E0
1.001329277E1,-1.807029843E-1,-2.434761971E-1,-9.801961899E0
1.001829277E1,-1.778199077E-1,-2.445030212E-1,-9.801988602E0
1.002329277E1,-1.767026335E-1,-2.445398718E-1,-9.802008629E0
1.002829277E1,-1.756719202E-1,-2.443324327E-1,-9.802031517E0
1.003329277E1,-1.763730198E-1,-2.425951958E-1,-9.802062035E0
1.003829277E1,-1.760645062E-1,-2.406018823E-1,-9.802117348E0
1.004329277E1,-1.753235608E-1,-2.385249138E-1,-9.802181244E0
1.004829277E1,-1.733401269E-1,-2.382590175E-1,-9.802222252E0
1.005329277E1,-1.706690490E-1,-2.382396460E-1,-9.802269936E0
1.005829277E1,-1.667677909E-1,-2.394080907E-1,-9.802309036E0
1.006329277E1,-1.636612117E-1,-2.404319346E-1,-9.802336693E0
1.006829277E1,-1.611458510E-1,-2.417002171E-1,-9.802347183E0
1.007329277E1,-1.597682834E-1,-2.419321984E-1,-9.802363396E0
1.007829277E1,-1.588901877E-1,-2.418520451E-1,-9.802379608E0
1.008329277E1,-1.589177251E-1,-2.412076145E-1,-9.802395821E0
1.008829277E1,-1.596045047E-1,-2.404667735E-1,-9.802402496E0
1.009329277E1,-1.607505232E-1,-2.400372028E-1,-9.802392960E0
1.009829277E1,-1.621650755E-1,-2.396202385E-1,-9.802381516E0
1.010329277E1,-1.629252732E-1,-2.397591919E-1,-9.802365303E0
1.010829277E1,-1.636200547E-1,-2.402015328E-1,-9.802342415E0
1.011329277E1,-1.624828726E-1,-2.402080745E-1,-9.802360535E0
1.011829277E1,-1.598940790E-1,-2.403471321E-1,-9.802400589E0
1.012329277E1,-1.574312150E-1,-2.393622249E-1,-9.802463531E0
1.012829277E1,-1.541755497E-1,-2.388758808E-1,-9.802528381E0
1.013329277E1,-1.511420459E-1,-2.387510240E-1,-9.802577972E0
1.013829277E1,-1.486371756E-1,-2.388967574E-1,-9.802613258E0
1.014329277E1,-1.470087916E-1,-2.387599498E-1,-9.802640915E0
1.014829277E1,-1.463789940E-1,-2.385057509E-1,-9.802656174E0
1.015329277E1,-1.466444135E-1,-2.374442220E-1,-9.802679062E0
1.015829277E1,-1.479364187E-1,-2.367233336E-1,-9.802676201E0
1.016329277E1,-1.479060352E-1,-2.351467609E-1,-9.802715302E0
1.016829277E1,-1.471817791E-1,-2.346180826E-1,-9.802738190E0
1.017329277E1,-1.452841461E-1,-2.340673059E-1,-9.802780151E0
1.017829277E1,-1.429763287E-1,-2.346419692E-1,-9.802800179E0
1.018329277E1,-1.409664452E-1,-2.348884940E-1,-9.802823067E0
1.018829277E1,-1.402269304E-1,-2.353346795E-1,-9.802823067E0
1.019329277E1,-1.394952983E-1,-2.352463603E-1,-9.802835464E0
1.019829277E1,-1.390586495E-1,-2.342810631E-1,-9.802865028E0
1.020329277E1,-1.381553859E-1,-2.332891077E-1,-9.802901268E0
1.020829277E1,-1.369686276E-1,-2.322689295E-1,-9.802942276E0
1.021329277E1,-1.361908615E-1,-2.323034406E-1,-9.802951813E0
1.021829277E1,-1.355445832E-1,-2.325134873E-1,-9.802956581E0
1.022329277E1,-1.351801902E-1,-2.333527207E-1,-9.802942276E0
1.022829277E1,-1.348398775E-1,-2.335553914E-1,-9.802941322E0
1.023329277E1,-1.338469237E-1,-2.328508347E-1,-9.802971840E0
1.023829277E1,-1.326659769E-1,-2.318204194E-1,-9.803012848E0
1.024329277E1,-1.315766275E-1,-2.312985510E-1,-9.803039551E0
1.024829277E1,-1.302995831E-1,-2.310489267E-1,-9.803062439E0
1.025329277E1,-1.288229078E-1,-2.315084934E-1,-9.803070068E0
1.025829277E1,-1.275587231E-1,-2.322224826E-1,-9.803070068E0
1.026329277E1,-1.264605373E-1,-2.332454473E-1,-9.803060532E0
1.026829277E1,-1.255569905E-1,-2.340138257E-1,-9.803053856E0
1.027329277E1,-1.244970784E-1,-2.342226207E-1,-9.803062439E0
1.027829277E1,-1.233944818E-1,-2.341955602E-1,-9.803075790E0
1.028329277E1,-1.230266020E-1,-2.335917056E-1,-9.803095818E0
1.028829277E1,-1.223745644E-1,-2.328914553E-1,-9.803120613E0
1.029329277E1,-1.222443283E-1,-2.322712988E-1,-9.803136826E0
1.029829277E1,-1.223228350E-1,-2.320050448E-1,-9.803142548E0
1.030329277E1,-1.218558103E-1,-2.318016142E-1,-9.803153038E0
1.030829277E1,-1.204973832E-1,-2.318374217E-1,-9.803169250E0
1.031329277E1,-1.189851835E-1,-2.319721133E-1,-9.803184509E0
1.031829277E1,-1.177531406E-1,-2.327020913E-1,-9.803181648E0
1.032329277E1,-1.167665198E-1,-2.330674678E-1,-9.803184509E0
1.032829277E1,-1.164797693E-1,-2.330447286E-1,-9.803189278E0
1.033329277E1,-1.164793596E-1,-2.328850627E-1,-9.803193092E0
1.033829277E1,-1.166619956E-1,-2.329928279E-1,-9.803187370E0
1.034329277E1,-1.157256886E-1,-2.332676947E-1,-9.803192139E0
1.034829277E1,-1.142526790E-1,-2.333700508E-1,-9.803207397E0
1.035329277E1,-1.126137227E-1,-2.335004956E-1,-9.803222656E0
1.035829277E1,-1.111507863E-1,-2.340545207E-1,-9.803227425E0
1.036329277E1,-1.100709662E-1,-2.346636206E-1,-9.803224564E0
1.036829277E1,-1.095804423E-1,-2.348607928E-1,-9.803224564E0
1.037329277E1,-1.088048741E-1,-2.352390587E-1,-9.803223610E0
1.037829277E1,-1.083691269E-1,-2.349612266E-1,-9.803235054E0
1.038329277E1,-1.072006598E-1,-2.352791876E-1,-9.803240776E0
1.038829277E1,-1.065900549E-1,-2.347718626E-1,-9.803260803E0
1.039329277E1,-1.054630503E-1,-2.349336743E-1,-9.803268433E0
1.039829277E1,-1.043488160E-1,-2.350158542E-1,-9.803277969E0
1.040329277E1,-1.036178619E-1,-2.356322259E-1,-9.803271294E0
1.040829277E1,-1.025369689E-1,-2.360204905E-1,-9.803273201E0
1.041329277E1,-1.014888510E-1,-2.368078530E-1,-9.803264618E0
1.041829277E1,-1.011669636E-1,-2.373425066E-1,-9.803256035E0
1.042329277E1,-1.013473198E-1,-2.376046926E-1,-9.803247452E0
1.042829277E1,-1.017170846E-1,-2.373372018E-1,-9.803250313E0
1.043329277E1,-1.020225808E-1,-2.371349633E-1,-9.803251266E0
1.043829277E1,-1.014961153E-1,-2.364435047E-1,-9.803274155E0
1.044329277E1,-9.991771728E-2,-2.357047945E-1,-9.803308487E0
1.044829277E1,-9.811699390E-2,-2.358646095E-1,-9.803321838E0
1.045329277E1,-9.709849954E-2,-2.363109440E-1,-9.803320885E0
1.045829277E1,-9.669123590E-2,-2.373473793E-1,-9.803300858E0
1.046329277E1,-9.663224220E-2,-2.379084975E-1,-9.803287506E0
1.046829277E1,-9.638981521E-2,-2.381074429E-1,-9.803285599E0
1.047329277E1,-9.568182379E-2,-2.381491512E-1,-9.803290367E0
1.047829277E1,-9.453099966E-2,-2.375864685E-1,-9.803316116E0
1.048329277E1,-9.309660643E-2,-2.374877632E-1,-9.803332329E0
1.048829277E1,-9.225341678E-2,-2.382209450E-1,-9.803321838E0
1.049329277E1,-9.248791635E-2,-2.389464229E-1,-9.803302765E0
1.049829277E1,-9.286694974E-2,-2.395915538E-1,-9.803282738E0
1.050329277E1,-9.337669611E-2,-2.398014069E-1,-9.803272247E0
1.050829277E1,-9.372927994E-2,-2.395884544E-1,-9.803275108E0
1.051329277E1,-9.365282208E-2,-2.391806990E-1,-9.803285599E0
1.051829277E1,-9.248910844E-2,-2.388613075E-1,-9.803304672E0
1.052329277E1,-9.061080962E-2,-2.388004214E-1,-9.803322792E0
1.052829277E1,-8.877640218E-2,-2.393338978E-1,-9.803327560E0
1.053329277E1,-8.738995343E-2,-2.398706079E-1,-9.803326607E0
1.053829277E1,-8.672440797E-2,-2.403772324E-1,-9.803319931E0
1.054329277E1,-8.673413843E-2,-2.407550812E-1,-9.803310394E0
1.054829277E1,-8.693799376E-2,-2.409213781E-1,-9.803305626E0
1.055329277E1,-8.645123243E-2,-2.406263798E-1,-9.803317070E0
1.055829277E1,-8.522052318E-2,-2.404611558E-1,-9.803331375E0
1.056329277E1,-8.398289979E-2,-2.404537648E-1,-9.803341866E0
1.056829277E1,-8.257400990E-2,-2.407012880E-1,-9.803347588E0
1.057329277E1,-8.127175272E-2,-2.409818918E-1,-9.803351402E0
1.057829277E1,-8.020786941E-2,-2.414680123E-1,-9.803348541E0
1.058329277E1,-7.965817302E-2,-2.417489737E-1,-9.803345680E0
1.058829277E1,-7.917632908E-2,-2.416905910E-1,-9.803351402E0
1.059329277E1,-7.844186574E-2,-2.412774861E-1,-9.803367615E0
1.059829277E1,-7.791319489E-2,-2.407698631E-1,-9.803384781E0
1.060329277E1,-7.724313438E-2,-2.402147949E-1,-9.803402901E0
1.060829277E1,-7.657730579E-2,-2.397210449E-1,-9.803421021E0
1.061329277E1,-7.623211294E-2,-2.392248064E-1,-9.803436279E0
1.061829277E1,-7.672470808E-2,-2.389657795E-1,-9.803438187E0
1.062329277E1,-7.720734179E-2,-2.389675230E-1,-9.803434372E0
1.062829277E1,-7.734327018E-2,-2.387604266E-1,-9.803438187E0
1.063329277E1,-7.670357078E-2,-2.388745844E-1,-9.803440094E0
1.063829277E1,-7.537811249E-2,-2.384818792E-1,-9.803460121E0
1.064329277E1,-7.282701880E-2,-2.385133654E-1,-9.803478241E0
