"Time (s)","Gyroscope x (rad/s)","Gyroscope y (rad/s)","Gyroscope z (rad/s)"
2.239620600E-2,1.145371422E-2,2.301433086E-1,-2.342666388E-1
2.451532100E-2,1.145371422E-2,2.301433086E-1,-2.342666388E-1
2.663412300E-2,1.145371422E-2,2.301433086E-1,-2.342666388E-1
2.875297700E-2,1.145371422E-2,2.301433086E-1,-2.342666388E-1
3.087183100E-2,-1.094975099E-1,3.474293351E-1,-2.843575478E-1
3.299063300E-2,-1.229365394E-1,3.559814394E-1,-2.892444730E-1
3.510948700E-2,-1.339320987E-1,3.706422150E-1,-2.916879356E-1
3.722834200E-2,-1.461493969E-1,3.840812445E-1,-2.941313982E-1
3.934719600E-2,-1.547015011E-1,3.926333487E-1,-2.965748608E-1
4.146599800E-2,-1.620318890E-1,4.072940946E-1,-2.977965772E-1
4.358485200E-2,-1.693622619E-1,4.170679152E-1,-2.990183234E-1
4.570370600E-2,-1.766926348E-1,4.280634820E-1,-2.977965772E-1
4.782256000E-2,-1.828012913E-1,4.353938699E-1,-3.002400398E-1
4.994136200E-2,-1.864664704E-1,4.463894367E-1,-2.990183234E-1
5.206021700E-2,-1.876882017E-1,4.537198246E-1,-3.002400398E-1
5.417907100E-2,-1.913533956E-1,4.598284662E-1,-2.977965772E-1
5.629792500E-2,-1.913533956E-1,4.647153914E-1,-2.990183234E-1
5.841672700E-2,-1.925751269E-1,4.708240330E-1,-2.990183234E-1
6.053558100E-2,-1.901316643E-1,4.708240330E-1,-3.002400398E-1
6.265443500E-2,-1.913533956E-1,4.708240330E-1,-3.026835024E-1
6.477329000E-2,-1.889099330E-1,4.708240330E-1,-3.026835024E-1
6.689209200E-2,-1.852447391E-1,4.732674956E-1,-3.039052188E-1
6.901089400E-2,-1.815795600E-1,4.720457494E-1,-3.063486814E-1
7.112980000E-2,-1.742491722E-1,4.683805704E-1,-3.087921441E-1
7.324865400E-2,-1.705839932E-1,4.671588540E-1,-3.112356067E-1
7.536745600E-2,-1.632536054E-1,4.634936452E-1,-3.136790693E-1
7.748631000E-2,-1.571449637E-1,4.598284662E-1,-3.161225319E-1
7.960516500E-2,-1.498145908E-1,4.573850036E-1,-3.197877109E-1
8.172401900E-2,-1.437059343E-1,4.524980783E-1,-3.234528899E-1
8.384282100E-2,-1.424842030E-1,4.500546157E-1,-3.283398151E-1
8.596167500E-2,-1.363755614E-1,4.427242577E-1,-3.320049942E-1
8.808052900E-2,-1.314886510E-1,4.390590489E-1,-3.368919194E-1
9.019938300E-2,-1.290451884E-1,4.305069447E-1,-3.405571282E-1
9.231818500E-2,-1.266017258E-1,4.243983030E-1,-3.430005610E-1
9.443698700E-2,-1.229365394E-1,4.207331240E-1,-3.466657698E-1
9.655589400E-2,-1.241582632E-1,4.170679152E-1,-3.491092324E-1
9.867469600E-2,-1.217148080E-1,4.158461988E-1,-3.503309488E-1
1.007935500E-1,-1.217148080E-1,4.134027362E-1,-3.527744114E-1
1.029124040E-1,-1.241582632E-1,4.146244824E-1,-3.527744114E-1
1.050312580E-1,-1.204930767E-1,4.195113778E-1,-3.515526950E-1
1.071501120E-1,-1.217148080E-1,4.207331240E-1,-3.515526950E-1
1.092689150E-1,-1.204930767E-1,4.231765866E-1,-3.503309488E-1
1.113877690E-1,-1.204930767E-1,4.305069447E-1,-3.466657698E-1
1.135066230E-1,-1.143844277E-1,4.463894367E-1,-3.430005610E-1
1.156254770E-1,-1.009454057E-1,4.586067200E-1,-3.405571282E-1
1.177442790E-1,-8.506292105E-2,4.732674956E-1,-3.393353820E-1
1.198631330E-1,-7.528908551E-2,4.818195999E-1,-3.381136656E-1
1.219819870E-1,-6.429351866E-2,4.879282415E-1,-3.381136656E-1
1.241007900E-1,-5.696314201E-2,4.915934205E-1,-3.381136656E-1
1.262196440E-1,-4.718930274E-2,4.928151667E-1,-3.393353820E-1
1.283384980E-1,-4.352411628E-2,4.915934205E-1,-3.405571282E-1
1.304573520E-1,-3.741546720E-2,4.879282415E-1,-3.405571282E-1
1.325762060E-1,-3.619373962E-2,4.867065251E-1,-3.417788446E-1
1.346949560E-1,-3.497200832E-2,4.867065251E-1,-3.442223072E-1
1.368138620E-1,-3.252854943E-2,4.830413163E-1,-3.442223072E-1
1.389327170E-1,-3.375028074E-2,4.867065251E-1,-3.442223072E-1
1.410515710E-1,-3.375028074E-2,4.854847789E-1,-3.442223072E-1
1.431703730E-1,-3.497200832E-2,4.830413163E-1,-3.454440236E-1
1.452892270E-1,-4.108065739E-2,4.854847789E-1,-3.442223072E-1
1.474080810E-1,-4.474584386E-2,4.830413163E-1,-3.454440236E-1
1.495269350E-1,-5.329795182E-2,4.854847789E-1,-3.466657698E-1
1.516457370E-1,-6.062832847E-2,4.879282415E-1,-3.466657698E-1
1.537645920E-1,-6.795870513E-2,4.879282415E-1,-3.466657698E-1
1.558834460E-1,-8.017600328E-2,4.854847789E-1,-3.466657698E-1
1.580022480E-1,-8.750637621E-2,4.867065251E-1,-3.466657698E-1
1.601211020E-1,-9.850194305E-2,4.854847789E-1,-3.454440236E-1
1.622399560E-1,-1.119409725E-1,4.879282415E-1,-3.442223072E-1
1.643588100E-1,-1.241582632E-1,4.867065251E-1,-3.417788446E-1
1.664776650E-1,-1.339320987E-1,4.818195999E-1,-3.417788446E-1
1.685964670E-1,-1.473711282E-1,4.793761373E-1,-3.393353820E-1
1.707153210E-1,-1.583666950E-1,4.781544209E-1,-3.356702030E-1
1.728341750E-1,-1.681405306E-1,4.769326746E-1,-3.307832778E-1
1.749530290E-1,-1.766926348E-1,4.696022868E-1,-3.271180987E-1
1.770718310E-1,-1.876882017E-1,4.683805704E-1,-3.246746361E-1
1.791906850E-1,-1.950185746E-1,4.659371078E-1,-3.210094273E-1
1.813095920E-1,-2.011272311E-1,4.647153914E-1,-3.173442483E-1
1.834283940E-1,-2.109010667E-1,4.634936452E-1,-3.173442483E-1
1.855471960E-1,-2.157879770E-1,4.634936452E-1,-3.124573231E-1
1.876660500E-1,-2.206749022E-1,4.610501826E-1,-3.100138903E-1
1.897849040E-1,-2.218966335E-1,4.598284662E-1,-3.100138903E-1
1.919037580E-1,-2.243400961E-1,4.586067200E-1,-3.087921441E-1
1.940225600E-1,-2.243400961E-1,4.561632872E-1,-3.063486814E-1
1.961414150E-1,-2.255618125E-1,4.537198246E-1,-3.075704277E-1
1.982602690E-1,-2.255618125E-1,4.537198246E-1,-3.087921441E-1
2.003791230E-1,-2.243400961E-1,4.512763619E-1,-3.100138903E-1
2.024979250E-1,-2.218966335E-1,4.476111531E-1,-3.100138903E-1
2.046167790E-1,-2.206749022E-1,4.476111531E-1,-3.112356067E-1
2.067356330E-1,-2.170097083E-1,4.439459741E-1,-3.124573231E-1
2.088544350E-1,-2.157879770E-1,4.427242577E-1,-3.149007857E-1
2.109732900E-1,-2.121227980E-1,4.390590489E-1,-3.173442483E-1
2.130921440E-1,-2.084576041E-1,4.378373325E-1,-3.185659945E-1
2.152109980E-1,-2.035706937E-1,4.366155863E-1,-3.210094273E-1
2.173298520E-1,-1.999054998E-1,4.353938699E-1,-3.234528899E-1
2.194486540E-1,-1.962403059E-1,4.317286909E-1,-3.271180987E-1
2.215675080E-1,-1.913533956E-1,4.305069447E-1,-3.283398151E-1
2.236863620E-1,-1.876882017E-1,4.268417656E-1,-3.295615613E-1
2.258052170E-1,-1.815795600E-1,4.231765866E-1,-3.320049942E-1
2.279240190E-1,-1.791360974E-1,4.219548404E-1,-3.344484568E-1
2.300428730E-1,-1.766926348E-1,4.195113778E-1,-3.356702030E-1
2.321617270E-1,-1.705839932E-1,4.158461988E-1,-3.368919194E-1
2.342805810E-1,-1.681405306E-1,4.097375572E-1,-3.381136656E-1
2.363993830E-1,-1.644753367E-1,4.048506320E-1,-3.381136656E-1
2.385182370E-1,-1.632536054E-1,4.011854529E-1,-3.393353820E-1
2.406370920E-1,-1.632536054E-1,3.975202441E-1,-3.405571282E-1
2.427558940E-1,-1.620318890E-1,3.926333487E-1,-3.417788446E-1
2.448747480E-1,-1.608101577E-1,3.877464235E-1,-3.442223072E-1
2.469936020E-1,-1.620318890E-1,3.877464235E-1,-3.466657698E-1
2.491124560E-1,-1.620318890E-1,3.804160357E-1,-3.503309488E-1
2.512313100E-1,-1.608101577E-1,3.804160357E-1,-3.515526950E-1
2.533501120E-1,-1.632536054E-1,3.767508566E-1,-3.527744114E-1
2.554689670E-1,-1.632536054E-1,3.767508566E-1,-3.564395905E-1
2.575878210E-1,-1.669187993E-1,3.755291104E-1,-3.588830531E-1
2.597066750E-1,-1.693622619E-1,3.730856776E-1,-3.625482321E-1
2.618254770E-1,-1.718057245E-1,3.706422150E-1,-3.674351573E-1
2.639443310E-1,-1.779143661E-1,3.706422150E-1,-3.723220825E-1
2.660631850E-1,-1.828012913E-1,3.706422150E-1,-3.747655451E-1
2.681820400E-1,-1.864664704E-1,3.694204688E-1,-3.808741868E-1
2.703008420E-1,-1.901316643E-1,3.681987524E-1,-3.820959330E-1
2.724196960E-1,-1.974620372E-1,3.657552898E-1,-3.833176494E-1
2.745385500E-1,-2.035706937E-1,3.645335436E-1,-3.845393658E-1
2.766574040E-1,-2.084576041E-1,3.645335436E-1,-3.833176494E-1
2.787762060E-1,-2.121227980E-1,3.620901108E-1,-3.833176494E-1
2.808950600E-1,-2.145662606E-1,3.608683646E-1,-3.820959330E-1
2.830139150E-1,-2.218966335E-1,3.608683646E-1,-3.796524704E-1
2.851327690E-1,-2.267835438E-1,3.596466482E-1,-3.772090077E-1
2.872515710E-1,-2.316704690E-1,3.572031856E-1,-3.747655451E-1
2.893704250E-1,-2.353356630E-1,3.572031856E-1,-3.723220825E-1
2.914892790E-1,-2.390008420E-1,3.535379767E-1,-3.686569035E-1
2.936081330E-1,-2.438877672E-1,3.523162603E-1,-3.674351573E-1
2.957269350E-1,-2.451094985E-1,3.498727977E-1,-3.649916947E-1
2.978457900E-1,-2.524398565E-1,3.462076187E-1,-3.601047993E-1
2.999646440E-1,-2.524398565E-1,3.425424397E-1,-3.588830531E-1
3.020834980E-1,-2.573267817E-1,3.413206935E-1,-3.576613367E-1
3.042023000E-1,-2.609919906E-1,3.364337683E-1,-3.552178741E-1
3.063211540E-1,-2.658788860E-1,3.352120519E-1,-3.527744114E-1
3.084400080E-1,-2.671006322E-1,3.352120519E-1,-3.527744114E-1
3.105588620E-1,-2.707658112E-1,3.339903057E-1,-3.527744114E-1
3.126777170E-1,-2.719875574E-1,3.352120519E-1,-3.515526950E-1
3.147965190E-1,-2.732092738E-1,3.364337683E-1,-3.491092324E-1
3.169153730E-1,-2.756527364E-1,3.413206935E-1,-3.491092324E-1
3.190342270E-1,-2.768744528E-1,3.425424397E-1,-3.478874862E-1
3.211530290E-1,-2.780961990E-1,3.462076187E-1,-3.478874862E-1
3.232718830E-1,-2.793179154E-1,3.510945439E-1,-3.466657698E-1
3.253907370E-1,-2.805396616E-1,3.523162603E-1,-3.466657698E-1
3.275095920E-1,-2.829830945E-1,3.559814394E-1,-3.466657698E-1
3.296284460E-1,-2.829830945E-1,3.559814394E-1,-3.466657698E-1
3.317472480E-1,-2.866483033E-1,3.559814394E-1,-3.466657698E-1
3.338661020E-1,-2.866483033E-1,3.559814394E-1,-3.478874862E-1
3.359849560E-1,-2.890917659E-1,3.559814394E-1,-3.478874862E-1
3.381038100E-1,-2.890917659E-1,3.572031856E-1,-3.478874862E-1
3.402226120E-1,-2.890917659E-1,3.547597229E-1,-3.478874862E-1
3.423414670E-1,-2.890917659E-1,3.572031856E-1,-3.466657698E-1
3.444603210E-1,-2.866483033E-1,3.620901108E-1,-3.454440236E-1
3.465791750E-1,-2.842048407E-1,3.657552898E-1,-3.454440236E-1
3.486979770E-1,-2.829830945E-1,3.743073940E-1,-3.442223072E-1
3.508168310E-1,-2.768744528E-1,3.791943192E-1,-3.454440236E-1
3.529356850E-1,-2.756527364E-1,3.889681399E-1,-3.454440236E-1
3.550544870E-1,-2.719875574E-1,3.975202441E-1,-3.454440236E-1
3.571733420E-1,-2.695440948E-1,4.072940946E-1,-3.478874862E-1
3.592921960E-1,-2.658788860E-1,4.121810198E-1,-3.491092324E-1
3.614110500E-1,-2.634354234E-1,4.231765866E-1,-3.515526950E-1
3.635299040E-1,-2.622137070E-1,4.280634820E-1,-3.527744114E-1
3.656487060E-1,-2.609919906E-1,4.341721535E-1,-3.576613367E-1
3.677675600E-1,-2.597702444E-1,4.402807951E-1,-3.601047993E-1
3.698864150E-1,-2.573267817E-1,4.476111531E-1,-3.613265157E-1
3.720052690E-1,-2.573267817E-1,4.537198246E-1,-3.625482321E-1
3.741240710E-1,-2.573267817E-1,4.586067200E-1,-3.637699783E-1
3.762429250E-1,-2.585485280E-1,4.683805704E-1,-3.637699783E-1
3.783617790E-1,-2.609919906E-1,4.781544209E-1,-3.637699783E-1
3.804806330E-1,-2.609919906E-1,4.879282415E-1,-3.637699783E-1
3.825994350E-1,-2.634354234E-1,4.952586293E-1,-3.649916947E-1
3.847182900E-1,-2.646571696E-1,5.038107038E-1,-3.625482321E-1
3.868371440E-1,-2.658788860E-1,5.123628378E-1,-3.613265157E-1
3.889559980E-1,-2.707658112E-1,5.209149122E-1,-3.637699783E-1
3.910748000E-1,-2.732092738E-1,5.294670463E-1,-3.613265157E-1
3.931936540E-1,-2.780961990E-1,5.319104791E-1,-3.576613367E-1
3.953125080E-1,-2.829830945E-1,5.343539715E-1,-3.515526950E-1
3.974313620E-1,-2.866483033E-1,5.367974043E-1,-3.466657698E-1
3.995501650E-1,-2.915352285E-1,5.404626131E-1,-3.454440236E-1
4.016690190E-1,-2.952004075E-1,5.416843295E-1,-3.430005610E-1
4.037878730E-1,-3.037525117E-1,5.441278219E-1,-3.393353820E-1
4.059067270E-1,-3.074176908E-1,5.441278219E-1,-3.344484568E-1
4.080255290E-1,-3.159697950E-1,5.453495383E-1,-3.271180987E-1
4.101443830E-1,-3.220784664E-1,5.477929711E-1,-3.222311735E-1
4.122632370E-1,-3.257436454E-1,5.526798964E-1,-3.173442483E-1
4.143820920E-1,-3.318522871E-1,5.563451052E-1,-3.124573231E-1
4.165009460E-1,-3.379609287E-1,5.575668216E-1,-3.087921441E-1
4.186197480E-1,-3.428478539E-1,5.624537468E-1,-3.051269650E-1
4.207386020E-1,-3.489564955E-1,5.673406720E-1,-3.039052188E-1
4.228574560E-1,-3.526217043E-1,5.710058808E-1,-3.014617562E-1
4.249763100E-1,-3.550651670E-1,5.746710300E-1,-2.953531146E-1
4.270951120E-1,-3.611738086E-1,5.783362389E-1,-2.904661894E-1
4.292139670E-1,-3.648389876E-1,5.795579553E-1,-2.843575478E-1
4.313328210E-1,-3.672824502E-1,5.832231641E-1,-2.770271897E-1
4.334516230E-1,-3.697259128E-1,5.844448805E-1,-2.721402645E-1
4.355704770E-1,-3.697259128E-1,5.844448805E-1,-2.672533393E-1
4.376893310E-1,-3.709476292E-1,5.844448805E-1,-2.611446977E-1
4.398081850E-1,-3.697259128E-1,5.856665969E-1,-2.587012351E-1
4.419270400E-1,-3.697259128E-1,5.868883133E-1,-2.550360560E-1
4.440458420E-1,-3.672824502E-1,5.868883133E-1,-2.513708472E-1
4.461646960E-1,-3.660607338E-1,5.881100893E-1,-2.489273995E-1
4.482835500E-1,-3.611738086E-1,5.856665969E-1,-2.489273995E-1
4.504024040E-1,-3.587303460E-1,5.881100893E-1,-2.464839369E-1
4.525212060E-1,-3.538434207E-1,5.844448805E-1,-2.464839369E-1
4.546400600E-1,-3.489564955E-1,5.832231641E-1,-2.452622056E-1
4.567589150E-1,-3.440696001E-1,5.795579553E-1,-2.452622056E-1
4.588777690E-1,-3.404043913E-1,5.758927464E-1,-2.440404743E-1
4.609965190E-1,-3.355174661E-1,5.710058808E-1,-2.428187430E-1
4.631154250E-1,-3.294088244E-1,5.661189556E-1,-2.403752953E-1
4.652342790E-1,-3.245218992E-1,5.587885380E-1,-2.391535640E-1
4.673531330E-1,-3.196350038E-1,5.514581800E-1,-2.367101014E-1
4.694719870E-1,-3.171915412E-1,5.441278219E-1,-2.354883701E-1
4.715907900E-1,-3.123046160E-1,5.355756879E-1,-2.342666388E-1
4.737096440E-1,-3.074176908E-1,5.294670463E-1,-2.330449075E-1
4.758284980E-1,-3.025307953E-1,5.221366882E-1,-2.330449075E-1
4.779473520E-1,-2.988655865E-1,5.148062706E-1,-2.330449075E-1
4.800661540E-1,-2.927569449E-1,5.086976290E-1,-2.330449075E-1
4.821850080E-1,-2.878700197E-1,5.038107038E-1,-2.342666388E-1
4.843038620E-1,-2.829830945E-1,4.977020919E-1,-2.342666388E-1
4.864227170E-1,-2.780961990E-1,4.940368831E-1,-2.354883701E-1
4.885415190E-1,-2.707658112E-1,4.879282415E-1,-2.367101014E-1
4.906603730E-1,-2.646571696E-1,4.830413163E-1,-2.379318327E-1
4.927792270E-1,-2.585485280E-1,4.769326746E-1,-2.415970266E-1
4.948980810E-1,-2.536616027E-1,4.671588540E-1,-2.428187430E-1
4.970168830E-1,-2.487746775E-1,4.561632872E-1,-2.452622056E-1
4.991357370E-1,-2.438877672E-1,4.463894367E-1,-2.477056682E-1
5.012545920E-1,-2.390008420E-1,4.341721535E-1,-2.513708472E-1
5.033734460E-1,-2.341139317E-1,4.231765866E-1,-2.562577724E-1
5.054922480E-1,-2.316704690E-1,4.097375572E-1,-2.611446977E-1
5.076111020E-1,-2.255618125E-1,3.987419903E-1,-2.648098767E-1
5.097303210E-1,-2.218966335E-1,3.877464235E-1,-2.696968019E-1
5.118488100E-1,-2.182314396E-1,3.767508566E-1,-2.745837271E-1
5.139676120E-1,-2.133445293E-1,3.681987524E-1,-2.806923687E-1
5.160864670E-1,-2.047924101E-1,3.620901108E-1,-2.831358314E-1
5.182053210E-1,-2.011272311E-1,3.547597229E-1,-2.868010104E-1
5.203241750E-1,-1.974620372E-1,3.498727977E-1,-2.916879356E-1
5.224429770E-1,-1.913533956E-1,3.437641561E-1,-2.929096520E-1
5.245618310E-1,-1.864664704E-1,3.400989771E-1,-2.965748608E-1
5.266806850E-1,-1.815795600E-1,3.339903057E-1,-2.977965772E-1
5.287995400E-1,-1.779143661E-1,3.291034102E-1,-3.002400398E-1
5.309183940E-1,-1.718057245E-1,3.242164850E-1,-3.002400398E-1
5.330371960E-1,-1.669187993E-1,3.193295598E-1,-3.002400398E-1
5.351560500E-1,-1.620318890E-1,3.119991720E-1,-2.977965772E-1
5.372749040E-1,-1.571449637E-1,3.046688139E-1,-2.953531146E-1
5.393937580E-1,-1.510363221E-1,2.961167097E-1,-2.953531146E-1
5.415125600E-1,-1.473711282E-1,2.887863219E-1,-2.916879356E-1
5.436314150E-1,-1.412624866E-1,2.802342176E-1,-2.904661894E-1
5.457502690E-1,-1.363755614E-1,2.692386508E-1,-2.892444730E-1
5.478691230E-1,-1.327103674E-1,2.619082630E-1,-2.855792940E-1
5.499879250E-1,-1.278234571E-1,2.509126961E-1,-2.831358314E-1
5.521067790E-1,-1.180496216E-1,2.448040545E-1,-2.819140851E-1
5.542256330E-1,-1.131627038E-1,2.325867712E-1,-2.782489061E-1
5.563444870E-1,-1.046105921E-1,2.228129357E-1,-2.745837271E-1
5.584632900E-1,-9.972367436E-2,2.130390853E-1,-2.696968019E-1
5.605821440E-1,-9.117157012E-2,2.044869810E-1,-2.648098767E-1
5.627009980E-1,-8.506292105E-2,1.947131455E-1,-2.599229515E-1
5.648198520E-1,-7.773254067E-2,1.824958473E-1,-2.538143098E-1
5.669387060E-1,-7.284562290E-2,1.727220118E-1,-2.489273995E-1
5.690575080E-1,-6.429351866E-2,1.617264450E-1,-2.428187430E-1
5.711763620E-1,-5.940660089E-2,1.519526094E-1,-2.379318327E-1
5.732952170E-1,-5.207622424E-2,1.421787739E-1,-2.330449075E-1
5.754140190E-1,-4.596757516E-2,1.324049383E-1,-2.269362658E-1
5.775328730E-1,-3.741546720E-2,1.226311028E-1,-2.220493406E-1
5.796517270E-1,-3.375028074E-2,1.140789986E-1,-2.159406990E-1
5.817705810E-1,-2.886336111E-2,1.067486182E-1,-2.110537887E-1
5.838894350E-1,-2.275471389E-2,9.819651395E-2,-2.061668634E-1
5.860082370E-1,-1.664606482E-2,9.086613357E-2,-2.012799382E-1
5.881270920E-1,-1.175914705E-2,8.353576064E-2,-1.951712966E-1
5.902459460E-1,-6.872228812E-3,7.376192510E-2,-1.915061027E-1
5.923648000E-1,-3.207040019E-3,6.398808211E-2,-1.866191924E-1
5.944836020E-1,4.581485991E-4,5.543597788E-2,-1.841757298E-1
5.966024560E-1,1.679878100E-3,4.688387364E-2,-1.817322671E-1
5.987213100E-1,1.679878100E-3,3.344484791E-2,-1.756236255E-1
6.008401650E-1,5.345067009E-3,2.122755162E-2,-1.719584316E-1
6.029589670E-1,2.901607659E-3,1.023198478E-2,-1.695149690E-1
6.050778210E-1,6.566796452E-3,-3.207040019E-3,-1.646280587E-1
6.071966750E-1,7.788525894E-3,-1.175914705E-2,-1.597411335E-1
6.093155290E-1,9.010255337E-3,-2.397644334E-2,-1.560759544E-1
6.114343310E-1,1.023198478E-2,-3.497200832E-2,-1.511890292E-1
6.135531850E-1,1.267544460E-2,-4.352411628E-2,-1.475238502E-1
6.156720400E-1,1.634063199E-2,-4.963276163E-2,-1.426369250E-1
6.177908940E-1,1.756236330E-2,-5.940660089E-2,-1.401934624E-1
6.199096960E-1,1.878409274E-2,-6.307178736E-2,-1.377500147E-1
6.220285500E-1,2.244928107E-2,-6.673697382E-2,-1.340848207E-1
6.241474040E-1,2.367101051E-2,-7.284562290E-2,-1.328630894E-1
6.262662580E-1,2.489273995E-2,-7.651081681E-2,-1.304196268E-1
6.283851120E-1,2.855792828E-2,-8.261945844E-2,-1.279761642E-1
6.305039150E-1,2.977965772E-2,-8.994983882E-2,-1.267544478E-1
6.326227690E-1,3.222311661E-2,-9.605848789E-2,-1.243109852E-1
6.347416230E-1,3.466657549E-2,-1.009454057E-1,-1.206457913E-1
6.368604250E-1,3.711003438E-2,-1.082757786E-1,-1.194240674E-1
6.389792790E-1,4.199695215E-2,-1.131627038E-1,-1.182023361E-1
6.410981330E-1,4.688387364E-2,-1.204930767E-1,-1.157588735E-1
6.432169870E-1,5.177079141E-2,-1.266017258E-1,-1.145371497E-1
6.453358420E-1,5.299251899E-2,-1.302669197E-1,-1.133154184E-1
6.474546440E-1,5.665770918E-2,-1.351538301E-1,-1.145371497E-1
6.495734980E-1,5.910116807E-2,-1.424842030E-1,-1.145371497E-1
6.516923520E-1,6.276635826E-2,-1.461493969E-1,-1.157588735E-1
6.538112060E-1,6.643154472E-2,-1.522580534E-1,-1.182023361E-1
6.559300080E-1,7.009673119E-2,-1.534797698E-1,-1.218675226E-1
6.580488620E-1,7.498364896E-2,-1.595884264E-1,-1.267544478E-1
6.601677170E-1,7.987056673E-2,-1.656970680E-1,-1.304196268E-1
6.622865710E-1,8.475748450E-2,-1.742491722E-1,-1.365282834E-1
6.644053730E-1,9.086613357E-2,-1.791360974E-1,-1.414151937E-1
6.665242270E-1,9.453132749E-2,-1.876882017E-1,-1.499672979E-1
6.686430810E-1,1.006399691E-1,-1.937968582E-1,-1.560759544E-1
6.707619350E-1,1.067486182E-1,-1.950185746E-1,-1.670715213E-1
6.728807370E-1,1.128572673E-1,-1.999054998E-1,-1.744018942E-1
6.749995920E-1,1.226311028E-1,-2.072358727E-1,-1.792888194E-1
6.771184460E-1,1.287397593E-1,-2.170097083E-1,-1.841757298E-1
6.792373000E-1,1.372918636E-1,-2.328922004E-1,-1.878409237E-1
6.813561020E-1,1.434005052E-1,-2.451094985E-1,-1.915061027E-1
6.834749560E-1,1.531743407E-1,-2.561050653E-1,-1.951712966E-1
6.855938100E-1,1.592829973E-1,-2.658788860E-1,-2.000582218E-1
6.877126650E-1,1.678351015E-1,-2.768744528E-1,-2.049451321E-1
6.898315190E-1,1.763872057E-1,-2.878700197E-1,-2.098320574E-1
6.919503210E-1,1.837175786E-1,-2.976438701E-1,-2.171624303E-1
6.940691750E-1,1.898262352E-1,-3.049742281E-1,-2.306014597E-1
6.961880290E-1,1.983783394E-1,-3.123046160E-1,-2.367101014E-1
6.983068830E-1,2.069304436E-1,-3.208567202E-1,-2.403752953E-1
7.004256850E-1,2.167042792E-1,-3.355174661E-1,-2.428187430E-1
7.025445400E-1,2.252563834E-1,-3.538434207E-1,-2.489273995E-1
7.046633940E-1,2.362519503E-1,-3.721693754E-1,-2.574795187E-1
7.067822480E-1,2.448040545E-1,-3.904953003E-1,-2.635881603E-1
7.089011020E-1,2.533561587E-1,-4.014908671E-1,-2.648098767E-1
7.110199040E-1,2.619082630E-1,-4.088212550E-1,-2.635881603E-1
7.131387580E-1,2.704603672E-1,-4.149298966E-1,-2.635881603E-1
7.152576120E-1,2.790125012E-1,-4.161516428E-1,-2.648098767E-1
7.173764150E-1,2.838993967E-1,-4.198168218E-1,-2.623664141E-1
7.194952690E-1,2.900080681E-1,-4.210385382E-1,-2.599229515E-1
7.216141230E-1,2.985601723E-1,-4.222602844E-1,-2.538143098E-1
7.237329770E-1,3.046688139E-1,-4.198168218E-1,-2.477056682E-1
7.258518310E-1,3.095557392E-1,-4.185950756E-1,-2.415970266E-1
7.279706330E-1,3.119991720E-1,-4.173733592E-1,-2.342666388E-1
7.300894870E-1,3.168860972E-1,-4.137081802E-1,-2.257145345E-1
7.322083420E-1,3.181078434E-1,-4.149298966E-1,-2.183841616E-1
7.343271960E-1,3.205513060E-1,-4.149298966E-1,-2.110537887E-1
7.364459980E-1,3.193295598E-1,-4.161516428E-1,-2.037234008E-1
7.385648520E-1,3.193295598E-1,-4.198168218E-1,-1.976147592E-1
7.406837060E-1,3.168860972E-1,-4.210385382E-1,-1.902843714E-1
7.428025600E-1,3.132209182E-1,-4.210385382E-1,-1.853974611E-1
7.449213620E-1,3.107774556E-1,-4.185950756E-1,-1.805105358E-1
7.470402170E-1,3.058905303E-1,-4.161516428E-1,-1.768453568E-1
7.491590710E-1,3.010036349E-1,-4.112647176E-1,-1.731801629E-1
7.512779250E-1,2.985601723E-1,-4.039343297E-1,-1.719584316E-1
7.533967270E-1,2.961167097E-1,-3.966039717E-1,-1.707367003E-1
7.555155810E-1,2.912297845E-1,-3.856084049E-1,-1.707367003E-1
7.576344350E-1,2.851211429E-1,-3.733910918E-1,-1.707367003E-1
7.597532900E-1,2.802342176E-1,-3.611738086E-1,-1.719584316E-1
7.618720920E-1,2.716821134E-1,-3.465130329E-1,-1.744018942E-1
7.639909460E-1,2.643517256E-1,-3.306305707E-1,-1.744018942E-1
7.661098000E-1,2.545779049E-1,-3.171915412E-1,-1.768453568E-1
7.682286540E-1,2.423606068E-1,-3.000873327E-1,-1.756236255E-1
7.703475080E-1,2.338084877E-1,-2.793179154E-1,-1.756236255E-1
7.724663100E-1,2.215912044E-1,-2.658788860E-1,-1.768453568E-1
7.745851650E-1,2.069304436E-1,-2.475529462E-1,-1.780670881E-1
7.767040190E-1,1.934914142E-1,-2.304487377E-1,-1.756236255E-1
7.788228730E-1,1.812741160E-1,-2.133445293E-1,-1.756236255E-1
7.809416750E-1,1.653916389E-1,-1.986837685E-1,-1.719584316E-1
7.830605290E-1,1.507308781E-1,-1.815795600E-1,-1.695149690E-1
7.851793830E-1,1.372918636E-1,-1.693622619E-1,-1.670715213E-1
7.872982370E-1,1.201876476E-1,-1.571449637E-1,-1.646280587E-1
7.894170400E-1,1.079703495E-1,-1.473711282E-1,-1.597411335E-1
7.915358940E-1,9.330959618E-2,-1.388190240E-1,-1.548542231E-1
7.936547480E-1,8.353576064E-2,-1.339320987E-1,-1.499672979E-1
7.957736020E-1,7.009673119E-2,-1.302669197E-1,-1.438586563E-1
7.978924560E-1,5.910116807E-2,-1.266017258E-1,-1.365282834E-1
8.000112580E-1,5.054906011E-2,-1.217148080E-1,-1.291978955E-1
8.021301120E-1,4.199695215E-2,-1.180496216E-1,-1.218675226E-1
8.042489670E-1,3.466657549E-2,-1.168278903E-1,-1.145371497E-1
8.063677690E-1,2.977965772E-2,-1.143844277E-1,-1.059850380E-1
8.084866230E-1,2.367101051E-2,-1.143844277E-1,-9.865466505E-2
8.106054770E-1,1.756236330E-2,-1.131627038E-1,-9.254601598E-2
8.127243310E-1,1.634063199E-2,-1.143844277E-1,-8.399390429E-2
8.148431850E-1,1.389717404E-2,-1.131627038E-1,-7.788526267E-2
8.169619870E-1,1.267544460E-2,-1.168278903E-1,-7.177661359E-2
8.190808420E-1,1.389717404E-2,-1.217148080E-1,-6.688969582E-2
8.211996960E-1,1.756236330E-2,-1.253799945E-1,-6.200277433E-2
8.233185500E-1,2.122755162E-2,-1.314886510E-1,-5.589412898E-2
8.254373520E-1,2.489273995E-2,-1.388190240E-1,-5.222893879E-2
8.275562060E-1,2.855792828E-2,-1.424842030E-1,-4.856374860E-2
8.296750600E-1,3.344484791E-2,-1.449276656E-1,-4.612028971E-2
8.317939150E-1,4.077522457E-2,-1.485928595E-1,-4.489856213E-2
8.339127690E-1,4.810560122E-2,-1.510363221E-1,-4.612028971E-2
8.360315710E-1,5.543597788E-2,-1.498145908E-1,-4.367683083E-2
8.381504250E-1,6.398808211E-2,-1.522580534E-1,-4.367683083E-2
8.402692790E-1,7.254019380E-2,-1.498145908E-1,-4.489856213E-2
8.423880810E-1,7.864884287E-2,-1.461493969E-1,-4.612028971E-2
8.445069350E-1,8.842267841E-2,-1.412624866E-1,-4.856374860E-2
8.466257900E-1,9.819651395E-2,-1.363755614E-1,-4.856374860E-2
8.487446440E-1,1.067486182E-1,-1.339320987E-1,-4.978547990E-2
8.508634980E-1,1.165224537E-1,-1.278234571E-1,-5.100720748E-2
8.529823000E-1,1.262962967E-1,-1.253799945E-1,-5.222893879E-2
8.551011540E-1,1.372918636E-1,-1.229365394E-1,-5.222893879E-2
8.572200080E-1,1.446222365E-1,-1.168278903E-1,-5.100720748E-2
8.593388620E-1,1.507308781E-1,-1.156061590E-1,-4.978547990E-2
8.614576650E-1,1.568395346E-1,-1.119409725E-1,-4.978547990E-2
8.635765190E-1,1.605047137E-1,-1.094975099E-1,-4.856374860E-2
8.656953730E-1,1.617264450E-1,-1.046105921E-1,-4.612028971E-2
8.678142270E-1,1.617264450E-1,-1.009454057E-1,-4.489856213E-2
8.699330290E-1,1.641699076E-1,-9.605848789E-2,-4.489856213E-2
8.720518830E-1,1.617264450E-1,-8.994983882E-2,-4.245510325E-2
8.741707370E-1,1.592829973E-1,-8.384118974E-2,-4.123337194E-2
8.762895920E-1,1.531743407E-1,-7.773254067E-2,-3.756818548E-2
8.784084460E-1,1.495091617E-1,-6.795870513E-2,-3.390299529E-2
8.805272480E-1,1.434005052E-1,-6.185005978E-2,-2.901607752E-2
8.826461020E-1,1.336266696E-1,-4.841103405E-2,-2.412915789E-2
8.847649560E-1,1.287397593E-1,-3.619373962E-2,-1.924224012E-2
8.868838100E-1,1.201876476E-1,-2.519817278E-2,-1.313359290E-2
8.890026120E-1,1.128572673E-1,-1.175914705E-2,-7.024944760E-3
8.911214670E-1,1.018617004E-1,1.679878100E-3,3.054323897E-4
8.932403210E-1,9.208786488E-2,1.511890348E-2,6.414080039E-3
8.953591750E-1,8.597921580E-2,2.855792828E-2,1.496618707E-2
8.974780290E-1,7.498364896E-2,4.321868345E-2,2.107483521E-2
8.995968310E-1,6.643154472E-2,5.787943676E-2,2.840521187E-2
9.017156850E-1,5.787943676E-2,7.009673119E-2,3.573558852E-2
9.038345400E-1,5.177079141E-2,8.231402934E-2,4.184423760E-2
9.059533940E-1,4.199695215E-2,9.330959618E-2,4.917461425E-2
9.080721960E-1,3.833176568E-2,1.055268943E-1,5.283980444E-2
9.101910500E-1,3.344484791E-2,1.153007299E-1,5.650499091E-2
9.123099040E-1,2.611446939E-2,1.238528341E-1,6.017018110E-2
9.144287580E-1,2.367101051E-2,1.299614757E-1,6.261363626E-2
9.165475600E-1,1.878409274E-2,1.348484010E-1,6.383536756E-2
9.186664150E-1,1.634063199E-2,1.397353113E-1,6.383536756E-2
9.207852690E-1,1.389717404E-2,1.446222365E-1,6.505709887E-2
9.229041230E-1,9.010255337E-3,1.446222365E-1,6.627883017E-2
9.250229770E-1,9.010255337E-3,1.470656991E-1,6.627883017E-2
9.271417790E-1,6.566796452E-3,1.470656991E-1,6.627883017E-2
9.292606330E-1,6.566796452E-3,1.446222365E-1,6.750056148E-2
9.313794870E-1,5.345067009E-3,1.470656991E-1,6.750056148E-2
9.334983420E-1,6.566796452E-3,1.458439678E-1,6.750056148E-2
9.356171440E-1,6.566796452E-3,1.446222365E-1,6.994401664E-2
9.377359980E-1,7.788525894E-3,1.434005052E-1,6.872228533E-2
9.398548520E-1,7.788525894E-3,1.409570426E-1,7.238747925E-2
9.419737060E-1,7.788525894E-3,1.385135949E-1,7.360920310E-2
9.440925080E-1,9.010255337E-3,1.336266696E-1,7.483093441E-2
9.462113620E-1,9.010255337E-3,1.287397593E-1,7.727439702E-2
9.483302170E-1,1.023198478E-2,1.238528341E-1,7.971785218E-2
9.504490710E-1,1.389717404E-2,1.153007299E-1,8.093958348E-2
9.525679250E-1,1.634063199E-2,1.116355360E-1,8.338304609E-2
9.546867270E-1,1.756236330E-2,1.043051630E-1,8.704823256E-2
9.568055810E-1,2.000582218E-2,9.941824526E-2,8.826996386E-2
9.589244350E-1,2.122755162E-2,9.575305134E-2,9.193515033E-2
9.610432900E-1,2.611446939E-2,8.842267841E-2,9.437860548E-2
9.631620920E-1,3.100138716E-2,7.742711157E-2,9.804379940E-2
9.652809460E-1,3.344484791E-2,7.009673119E-2,9.804379940E-2
9.673998000E-1,3.833176568E-2,6.154462695E-2,1.004872546E-1
9.695186540E-1,3.955349326E-2,4.932733253E-2,1.004872546E-1
9.716374560E-1,4.566214234E-2,3.588830680E-2,1.017089859E-1
9.737563100E-1,5.054906011E-2,2.244928107E-2,1.041524485E-1
9.758751650E-1,5.543597788E-2,9.010255337E-3,1.041524485E-1
9.779940190E-1,6.154462695E-2,-9.315688163E-3,1.041524485E-1
9.801128210E-1,6.520981342E-2,-2.519817278E-2,1.065959036E-1
9.822316750E-1,7.254019380E-2,-4.230238497E-2,1.078176349E-1
9.843505290E-1,7.742711157E-2,-5.940660089E-2,1.102610901E-1
9.864693830E-1,8.475748450E-2,-7.528908551E-2,1.127045527E-1
9.885882370E-1,8.964440972E-2,-9.239330143E-2,1.163697392E-1
9.907070400E-1,9.453132749E-2,-1.082757786E-1,1.175914705E-1
9.928258940E-1,1.006399691E-1,-1.253799945E-1,1.200349256E-1
9.949447480E-1,1.030834317E-1,-1.424842030E-1,1.249218509E-1
9.970636020E-1,1.067486182E-1,-1.595884264E-1,1.285870373E-1
9.991824040E-1,1.079703495E-1,-1.742491722E-1,1.334739476E-1
1.001301258E0,1.079703495E-1,-1.925751269E-1,1.395826042E-1
1.003420112E0,1.091920808E-1,-2.084576041E-1,1.469129771E-1
1.005538967E0,1.116355360E-1,-2.243400961E-1,1.530216336E-1
1.007657769E0,1.116355360E-1,-2.377791107E-1,1.591302752E-1
1.009776623E0,1.116355360E-1,-2.524398565E-1,1.664606482E-1
1.011895477E0,1.091920808E-1,-2.646571696E-1,1.750127524E-1
1.014014331E0,1.104138121E-1,-2.756527364E-1,1.823431402E-1
1.016133133E0,1.104138121E-1,-2.890917659E-1,1.896735132E-1
1.018251987E0,1.104138121E-1,-2.976438701E-1,1.957821548E-1
1.020370842E0,1.116355360E-1,-3.074176908E-1,2.018908113E-1
1.022489696E0,1.116355360E-1,-3.159697950E-1,2.104429156E-1
1.024608550E0,1.128572673E-1,-3.257436454E-1,2.165515572E-1
1.026727352E0,1.140789986E-1,-3.355174661E-1,2.226602137E-1
1.028846206E0,1.140789986E-1,-3.428478539E-1,2.275471240E-1
1.030965060E0,1.189659163E-1,-3.501782417E-1,2.324340492E-1
1.033083915E0,1.189659163E-1,-3.599520624E-1,2.348775119E-1
1.035202717E0,1.226311028E-1,-3.660607338E-1,2.385426909E-1
1.037321571E0,1.250745654E-1,-3.709476292E-1,2.409861535E-1
1.039440425E0,1.262962967E-1,-3.758345544E-1,2.422078848E-1
1.041559279E0,1.311832070E-1,-3.807214797E-1,2.422078848E-1
1.043678081E0,1.299614757E-1,-3.843866587E-1,2.422078848E-1
1.045796935E0,1.348484010E-1,-3.880518377E-1,2.409861535E-1
1.047915790E0,1.336266696E-1,-3.892735839E-1,2.360992432E-1
1.050034644E0,1.336266696E-1,-3.904953003E-1,2.324340492E-1
1.052153446E0,1.299614757E-1,-3.929387629E-1,2.275471240E-1
1.054272300E0,1.262962967E-1,-3.953822255E-1,2.226602137E-1
1.056391154E0,1.226311028E-1,-3.929387629E-1,2.177732885E-1
1.058510008E0,1.153007299E-1,-3.892735839E-1,2.141081095E-1
1.060628862E0,1.079703495E-1,-3.856084049E-1,2.116646469E-1
1.062747717E0,9.941824526E-2,-3.770562708E-1,2.079994529E-1
1.064866519E0,9.208786488E-2,-3.660607338E-1,2.055560052E-1
1.066985373E0,8.109229803E-2,-3.538434207E-1,2.031125426E-1
1.069104227E0,7.131846249E-2,-3.391826749E-1,2.006690800E-1
1.071223081E0,6.154462695E-2,-3.220784664E-1,2.006690800E-1
1.073341883E0,4.932733253E-2,-3.037525117E-1,1.994473487E-1
1.075460737E0,3.466657549E-2,-2.842048407E-1,1.982256174E-1
1.077579540E0,2.122755162E-2,-2.622137070E-1,1.970038861E-1
1.079698446E0,6.566796452E-3,-2.414443046E-1,1.970038861E-1
1.081817248E0,-6.872228812E-3,-2.182314396E-1,1.970038861E-1
1.083936102E0,-2.397644334E-2,-1.925751269E-1,1.970038861E-1
1.086054956E0,-3.863719851E-2,-1.681405306E-1,1.957821548E-1
1.088173810E0,-5.451968312E-2,-1.412624866E-1,1.957821548E-1
1.090292612E0,-7.040216774E-2,-1.131627038E-1,1.957821548E-1
1.092411467E0,-8.628465235E-2,-8.872810751E-2,1.957821548E-1
1.094530321E0,-1.009454057E-1,-5.818486959E-2,1.957821548E-1
1.096649175E0,-1.204930767E-1,-3.008509055E-2,1.933387071E-1
1.098768029E0,-1.363755614E-1,4.581485991E-4,1.921169758E-1
1.100886831E0,-1.510363221E-1,2.733619884E-2,1.921169758E-1
1.103005685E0,-1.669187993E-1,5.543597788E-2,1.921169758E-1
1.105124540E0,-1.791360974E-1,8.109229803E-2,1.933387071E-1
1.107243394E0,-1.925751269E-1,1.079703495E-1,1.921169758E-1
1.109362196E0,-2.035706937E-1,1.336266696E-1,1.908952445E-1
1.111481050E0,-2.121227980E-1,1.580612659E-1,1.908952445E-1
1.113599904E0,-2.206749022E-1,1.776089370E-1,1.908952445E-1
1.115718758E0,-2.292270064E-1,1.983783394E-1,1.921169758E-1
1.117837612E0,-2.341139317E-1,2.154825479E-1,1.908952445E-1
1.119956415E0,-2.390008420E-1,2.313650399E-1,1.908952445E-1
1.122075269E0,-2.426660359E-1,2.460257858E-1,1.884517819E-1
1.124194123E0,-2.438877672E-1,2.557996213E-1,1.872300506E-1
1.126312977E0,-2.451094985E-1,2.667951882E-1,1.860083193E-1
1.128431779E0,-2.438877672E-1,2.716821134E-1,1.847866029E-1
1.130550633E0,-2.438877672E-1,2.777907550E-1,1.835648715E-1
1.132669487E0,-2.402225733E-1,2.790125012E-1,1.811214089E-1
1.134788342E0,-2.390008420E-1,2.777907550E-1,1.798996776E-1
1.136907196E0,-2.365573794E-1,2.765690386E-1,1.786779463E-1
1.139025998E0,-2.316704690E-1,2.692386508E-1,1.774562150E-1
1.141144852E0,-2.280052751E-1,2.655734718E-1,1.750127524E-1
1.143263706E0,-2.206749022E-1,2.557996213E-1,1.750127524E-1
1.145382560E0,-2.157879770E-1,2.460257858E-1,1.737910360E-1
1.147501362E0,-2.084576041E-1,2.386954129E-1,1.737910360E-1
1.149620217E0,-1.999054998E-1,2.276998460E-1,1.737910360E-1
1.151739071E0,-1.901316643E-1,2.179260105E-1,1.750127524E-1
1.153857925E0,-1.791360974E-1,2.093739063E-1,1.774562150E-1
1.155976727E0,-1.693622619E-1,1.996000707E-1,1.798996776E-1
1.158095581E0,-1.595884264E-1,1.886045039E-1,1.811214089E-1
1.160214435E0,-1.498145908E-1,1.776089370E-1,1.835648715E-1
1.162333290E0,-1.424842030E-1,1.702785641E-1,1.847866029E-1
1.164452092E0,-1.278234571E-1,1.605047137E-1,1.872300506E-1
1.166570946E0,-1.217148080E-1,1.531743407E-1,1.896735132E-1
1.168689800E0,-1.107192412E-1,1.434005052E-1,1.921169758E-1
1.170808654E0,-1.009454057E-1,1.360701323E-1,1.933387071E-1
1.172927508E0,-9.117157012E-2,1.275180280E-1,1.945604384E-1
1.175046310E0,-8.261945844E-2,1.201876476E-1,1.945604384E-1
1.177165165E0,-7.284562290E-2,1.116355360E-1,1.933387071E-1
1.179284019E0,-6.551524997E-2,1.030834317E-1,1.896735132E-1
1.181402873E0,-5.574141070E-2,9.575305134E-2,1.872300506E-1
1.183521727E0,-4.596757516E-2,8.842267841E-2,1.847866029E-1
1.185640529E0,-3.741546720E-2,7.987056673E-2,1.811214089E-1
1.187759383E0,-2.886336111E-2,7.498364896E-2,1.750127524E-1
1.189878237E0,-2.031125315E-2,6.643154472E-2,1.689041108E-1
1.191997092E0,-1.175914705E-2,5.787943676E-2,1.615737379E-1
1.194115894E0,-3.207040019E-3,4.932733253E-2,1.554650813E-1
1.196234748E0,4.123337101E-3,4.321868345E-2,1.481347084E-1
1.198353602E0,1.267544460E-2,3.711003438E-2,1.395826042E-1
1.200472456E0,2.244928107E-2,2.977965772E-2,1.298087686E-1
1.202591310E0,3.100138716E-2,2.489273995E-2,1.212566569E-1
1.204710112E0,3.833176568E-2,1.878409274E-2,1.114828214E-1
1.206828967E0,4.688387364E-2,1.511890348E-2,1.029307172E-1
1.208947821E0,5.421425030E-2,7.788525894E-3,9.437860548E-2
1.211066675E0,5.910116807E-2,4.123337101E-3,8.582650125E-2
1.213185477E0,6.520981342E-2,4.581485991E-4,7.605266571E-2
1.215304331E0,7.131846249E-2,-4.428769462E-3,6.872228533E-2
1.217423185E0,7.620538026E-2,-1.053741761E-2,5.894844979E-2
1.219542040E0,8.109229803E-2,-1.420260593E-2,5.161807314E-2
1.221660842E0,8.353576064E-2,-1.908952370E-2,4.428769648E-2
1.223779696E0,8.720094711E-2,-2.275471389E-2,3.573558852E-2
1.225898550E0,8.842267841E-2,-2.764163166E-2,2.962694131E-2
1.228017404E0,8.964440972E-2,-3.252854943E-2,2.351829410E-2
1.230136258E0,9.086613357E-2,-3.252854943E-2,1.740964688E-2
1.232255060E0,8.720094711E-2,-3.497200832E-2,1.252272818E-2
1.234373915E0,8.842267841E-2,-3.741546720E-2,8.857538924E-3
1.236492769E0,8.597921580E-2,-3.863719851E-2,6.414080039E-3
1.238611623E0,8.231402934E-2,-3.741546720E-2,1.527161920E-3
1.240730425E0,7.864884287E-2,-3.741546720E-2,-2.138026757E-3
1.242849279E0,7.498364896E-2,-3.619373962E-2,-4.581485875E-3
1.244968133E0,7.009673119E-2,-3.497200832E-2,-5.803215317E-3
1.247086987E0,6.276635826E-2,-3.130681813E-2,-5.803215317E-3
1.249205842E0,5.543597788E-2,-3.130681813E-2,-5.803215317E-3
1.251324644E0,4.688387364E-2,-2.764163166E-2,-7.024944760E-3
1.253443498E0,3.955349326E-2,-2.397644334E-2,-4.581485875E-3
1.255562352E0,3.222311661E-2,-2.153298259E-2,-3.359756200E-3
1.257681206E0,2.611446939E-2,-1.664606482E-2,-2.138026757E-3
1.259800008E0,1.634063199E-2,-1.298087649E-2,1.527161920E-3
1.261918862E0,9.010255337E-3,-1.053741761E-2,1.527161920E-3
1.264037717E0,4.581485991E-4,-5.650499370E-3,3.970621154E-3
1.266156571E0,-8.093958721E-3,1.679878100E-3,5.192350596E-3
1.268275425E0,-1.542433538E-2,6.566796452E-3,7.635809947E-3
1.270394227E0,-2.275471389E-2,1.389717404E-2,7.635809947E-3
1.272513081E0,-2.886336111E-2,1.878409274E-2,8.857538924E-3
1.274631935E0,-3.375028074E-2,2.611446939E-2,7.635809947E-3
1.276750790E0,-3.863719851E-2,3.344484791E-2,7.635809947E-3
1.278869592E0,-4.596757516E-2,3.955349326E-2,6.414080039E-3
1.280988446E0,-4.963276163E-2,4.444041103E-2,3.970621154E-3
1.283107300E0,-5.207622424E-2,4.932733253E-2,2.748891478E-3
1.285226154E0,-5.574141070E-2,5.543597788E-2,3.054323897E-4
1.287345008E0,-5.940660089E-2,5.910116807E-2,-9.162971983E-4
1.289463810E0,-6.307178736E-2,6.154462695E-2,-3.359756200E-3
1.291582665E0,-6.429351866E-2,6.520981342E-2,-4.581485875E-3
1.293701519E0,-6.551524997E-2,6.520981342E-2,-7.024944760E-3
1.295820373E0,-6.795870513E-2,6.643154472E-2,-1.069013402E-2
1.297939175E0,-6.918043643E-2,6.643154472E-2,-1.191186346E-2
1.300058029E0,-6.918043643E-2,6.643154472E-2,-1.191186346E-2
1.302176883E0,-6.918043643E-2,6.520981342E-2,-1.435532235E-2
1.304295737E0,-6.918043643E-2,6.276635826E-2,-1.435532235E-2
1.306414540E0,-7.040216774E-2,6.276635826E-2,-1.435532235E-2
1.308533394E0,-6.673697382E-2,6.032289565E-2,-1.557705179E-2
1.310652248E0,-6.551524997E-2,6.032289565E-2,-1.557705179E-2
1.312771102E0,-6.062832847E-2,5.665770918E-2,-1.557705179E-2
1.314889956E0,-5.696314201E-2,5.299251899E-2,-1.435532235E-2
1.317008758E0,-5.451968312E-2,4.932733253E-2,-1.313359290E-2
1.319127612E0,-4.963276163E-2,4.321868345E-2,-1.313359290E-2
1.321246467E0,-4.474584386E-2,3.833176568E-2,-1.069013402E-2
1.323365321E0,-4.108065739E-2,3.100138716E-2,-1.069013402E-2
1.325484175E0,-3.619373962E-2,2.367101051E-2,-9.468403645E-3
1.327602977E0,-3.375028074E-2,1.511890348E-2,-9.468403645E-3
1.329721831E0,-2.886336111E-2,7.788525894E-3,-9.468403645E-3
1.331840685E0,-2.519817278E-2,4.581485991E-4,-8.246674202E-3
1.333959540E0,-2.275471389E-2,-6.872228812E-3,-7.024944760E-3
1.336078394E0,-1.908952370E-2,-1.053741761E-2,-7.024944760E-3
1.338197196E0,-1.664606482E-2,-1.542433538E-2,-8.246674202E-3
1.340316050E0,-1.420260593E-2,-1.664606482E-2,-8.246674202E-3
1.342434904E0,-1.298087649E-2,-1.908952370E-2,-7.024944760E-3
1.344553758E0,-1.298087649E-2,-1.908952370E-2,-8.246674202E-3
1.346672560E0,-1.298087649E-2,-1.908952370E-2,-9.468403645E-3
1.348791415E0,-1.175914705E-2,-1.786779426E-2,-9.468403645E-3
1.350910269E0,-1.175914705E-2,-1.786779426E-2,-1.069013402E-2
1.353029123E0,-1.175914705E-2,-1.420260593E-2,-1.191186346E-2
1.355147925E0,-1.053741761E-2,-1.175914705E-2,-1.435532235E-2
1.357266779E0,-1.420260593E-2,-1.053741761E-2,-1.557705179E-2
1.359385633E0,-1.175914705E-2,-8.093958721E-3,-1.679878123E-2
1.361504487E0,-1.298087649E-2,-4.428769462E-3,-1.924224012E-2
1.363623342E0,-1.420260593E-2,-3.207040019E-3,-2.168569900E-2
1.365742144E0,-1.175914705E-2,-1.985310577E-3,-2.412915789E-2
1.367860998E0,-1.053741761E-2,-1.985310577E-3,-2.657261863E-2
1.369979852E0,-1.053741761E-2,1.679878100E-3,-2.779434808E-2
1.372098706E0,-9.315688163E-3,2.901607659E-3,-3.145953640E-2
1.374217508E0,-1.175914705E-2,4.123337101E-3,-3.268126398E-2
1.376336362E0,-1.053741761E-2,4.123337101E-3,-3.512472659E-2
1.378455217E0,-6.872228812E-3,6.566796452E-3,-3.878991306E-2
1.380574071E0,-5.650499370E-3,9.010255337E-3,-4.245510325E-2
1.382692873E0,-3.207040019E-3,1.389717404E-2,-4.489856213E-2
1.384811727E0,-3.207040019E-3,1.634063199E-2,-4.856374860E-2
1.386930581E0,-1.985310577E-3,2.000582218E-2,-5.100720748E-2
1.389049435E0,1.679878100E-3,2.489273995E-2,-5.467239767E-2
1.391168290E0,1.679878100E-3,2.611446939E-2,-5.711585656E-2
1.393287092E0,7.788525894E-3,2.855792828E-2,-6.078104675E-2
1.395405946E0,9.010255337E-3,2.611446939E-2,-6.444623321E-2
1.397524800E0,1.145371422E-2,2.489273995E-2,-6.566796452E-2
1.399643654E0,1.511890348E-2,1.878409274E-2,-6.688969582E-2
1.401762508E0,1.756236330E-2,1.267544460E-2,-6.688969582E-2
1.403881310E0,1.878409274E-2,9.010255337E-3,-6.933315098E-2
1.406000165E0,2.000582218E-2,2.901607659E-3,-6.933315098E-2
1.408119019E0,2.367101051E-2,4.581485991E-4,-6.811141968E-2
1.410237873E0,2.855792828E-2,-5.650499370E-3,-6.933315098E-2
1.412356675E0,3.100138716E-2,-8.093958721E-3,-6.566796452E-2
1.414475529E0,3.344484791E-2,-1.175914705E-2,-6.322450191E-2
1.416594383E0,3.711003438E-2,-1.420260593E-2,-5.955931544E-2
1.418713237E0,4.077522457E-2,-1.664606482E-2,-5.589412898E-2
1.420832092E0,4.444041103E-2,-1.908952370E-2,-5.100720748E-2
1.422950894E0,4.566214234E-2,-2.397644334E-2,-4.734202102E-2
1.425069748E0,5.177079141E-2,-2.641990222E-2,-4.245510325E-2
1.427188602E0,5.910116807E-2,-2.764163166E-2,-3.756818548E-2
1.429307456E0,6.643154472E-2,-2.764163166E-2,-3.268126398E-2
1.431426310E0,7.498364896E-2,-3.008509055E-2,-2.901607752E-2
1.433545112E0,7.987056673E-2,-3.252854943E-2,-2.412915789E-2
1.435663967E0,8.720094711E-2,-3.497200832E-2,-2.168569900E-2
1.437782821E0,9.575305134E-2,-3.863719851E-2,-1.924224012E-2
1.439901623E0,1.043051630E-1,-4.230238497E-2,-1.679878123E-2
1.442020477E0,1.091920808E-1,-4.718930274E-2,-1.679878123E-2
1.444139331E0,1.153007299E-1,-5.329795182E-2,-1.435532235E-2
1.446258185E0,1.238528341E-1,-5.818486959E-2,-1.313359290E-2
1.448377040E0,1.275180280E-1,-6.551524997E-2,-1.313359290E-2
1.450495894E0,1.360701323E-1,-7.284562290E-2,-1.191186346E-2
1.452614696E0,1.458439678E-1,-8.017600328E-2,-1.069013402E-2
1.454733550E0,1.531743407E-1,-8.506292105E-2,-1.069013402E-2
1.456852404E0,1.617264450E-1,-8.872810751E-2,-9.468403645E-3
1.458971258E0,1.715002805E-1,-9.483675659E-2,-1.069013402E-2
1.461090060E0,1.824958473E-1,-9.605848789E-2,-1.191186346E-2
1.463208915E0,1.934914142E-1,-9.728021920E-2,-1.191186346E-2
1.465327769E0,2.057087123E-1,-9.605848789E-2,-1.435532235E-2
1.467446623E0,2.203694731E-1,-9.239330143E-2,-1.557705179E-2
1.469565477E0,2.338084877E-1,-8.628465235E-2,-1.802051067E-2
1.471684279E0,2.472475171E-1,-8.384118974E-2,-2.168569900E-2
1.473803133E0,2.582430840E-1,-7.773254067E-2,-2.535088919E-2
1.475921987E0,2.704603672E-1,-7.284562290E-2,-3.023780696E-2
1.478040842E0,2.802342176E-1,-6.918043643E-2,-3.268126398E-2
1.480159644E0,2.900080681E-1,-6.673697382E-2,-3.756818548E-2
1.482278498E0,3.010036349E-1,-6.673697382E-2,-3.878991306E-2
1.484397352E0,3.083339930E-1,-6.673697382E-2,-4.245510325E-2
1.486516206E0,3.144426346E-1,-6.673697382E-2,-4.245510325E-2
1.488635060E0,3.205513060E-1,-6.551524997E-2,-4.245510325E-2
1.490753862E0,3.242164850E-1,-7.040216774E-2,-4.245510325E-2
1.492872717E0,3.278816640E-1,-7.651081681E-2,-4.001164436E-2
1.494991571E0,3.291034102E-1,-7.773254067E-2,-3.878991306E-2
1.497110425E0,3.291034102E-1,-8.261945844E-2,-3.390299529E-2
1.499229227E0,3.291034102E-1,-8.628465235E-2,-2.901607752E-2
1.501348081E0,3.291034102E-1,-8.994983882E-2,-2.535088919E-2
1.503466935E0,3.278816640E-1,-9.239330143E-2,-1.924224012E-2
1.505585790E0,3.291034102E-1,-9.361502528E-2,-1.313359290E-2
1.507704592E0,3.278816640E-1,-9.605848789E-2,-8.246674202E-3
1.509823446E0,3.254382014E-1,-9.728021920E-2,-4.581485875E-3
1.511942300E0,3.254382014E-1,-9.728021920E-2,3.054323897E-4
1.514061154E0,3.266599476E-1,-9.850194305E-2,3.970621154E-3
1.516180008E0,3.242164850E-1,-9.605848789E-2,7.635809947E-3
1.518298810E0,3.254382014E-1,-9.483675659E-2,1.252272818E-2
1.520417665E0,3.254382014E-1,-9.605848789E-2,1.496618707E-2
1.522536519E0,3.266599476E-1,-9.483675659E-2,1.985310577E-2
1.524655373E0,3.278816640E-1,-9.483675659E-2,2.107483521E-2
1.526774175E0,3.278816640E-1,-9.728021920E-2,2.474002354E-2
1.528893029E0,3.254382014E-1,-9.605848789E-2,2.840521187E-2
1.531011883E0,3.229947388E-1,-9.972367436E-2,3.084867075E-2
1.533130737E0,3.242164850E-1,-1.021671370E-1,3.695731983E-2
1.535249540E0,3.205513060E-1,-9.605848789E-2,4.306596518E-2
1.537368394E0,3.181078434E-1,-8.506292105E-2,5.161807314E-2
1.539487248E0,3.132209182E-1,-8.750637621E-2,6.383536756E-2
1.541606102E0,3.119991720E-1,-9.850194305E-2,7.605266571E-2
1.543724956E0,3.095557392E-1,-1.094975099E-1,8.704823256E-2
1.545843810E0,3.083339930E-1,-1.180496216E-1,9.926552325E-2
1.547962612E0,3.058905303E-1,-1.253799945E-1,1.114828214E-1
1.550081467E0,3.071122766E-1,-1.351538301E-1,1.237001196E-1
1.552200321E0,3.095557392E-1,-1.412624866E-1,1.359174103E-1
1.554319175E0,3.095557392E-1,-1.485928595E-1,1.469129771E-1
1.556437977E0,3.156643808E-1,-1.571449637E-1,1.554650813E-1
1.558556831E0,3.205513060E-1,-1.693622619E-1,1.627954692E-1
1.560675685E0,3.217730224E-1,-1.815795600E-1,1.701258421E-1
1.562794540E0,3.266599476E-1,-1.925751269E-1,1.750127524E-1
1.564913342E0,3.303251266E-1,-2.047924101E-1,1.774562150E-1
1.567032196E0,3.352120519E-1,-2.218966335E-1,1.786779463E-1
1.569151050E0,3.400989771E-1,-2.377791107E-1,1.786779463E-1
1.571269904E0,3.425424397E-1,-2.561050653E-1,1.774562150E-1
1.573388758E0,3.474293351E-1,-2.744309902E-1,1.762344837E-1
1.575507560E0,3.535379767E-1,-2.952004075E-1,1.737910360E-1
1.577626415E0,3.559814394E-1,-3.171915412E-1,1.725693047E-1
1.579745269E0,3.620901108E-1,-3.342957497E-1,1.713475734E-1
1.581864123E0,3.669770062E-1,-3.513999581E-1,1.701258421E-1
1.583982977E0,3.718639314E-1,-3.697259128E-1,1.664606482E-1
1.586101779E0,3.730856776E-1,-3.819431961E-1,1.615737379E-1
1.588220633E0,3.755291104E-1,-3.904953003E-1,1.566868126E-1
1.590339487E0,3.743073940E-1,-3.990474045E-1,1.542433500E-1
1.592458342E0,3.743073940E-1,-4.075995386E-1,1.481347084E-1
1.594577144E0,3.706422150E-1,-4.075995386E-1,1.469129771E-1
1.596695998E0,3.669770062E-1,-3.990474045E-1,1.432477981E-1
1.598814852E0,3.633118272E-1,-3.892735839E-1,1.395826042E-1
1.600933706E0,3.596466482E-1,-3.819431961E-1,1.346956789E-1
1.603052560E0,3.572031856E-1,-3.733910918E-1,1.334739476E-1
1.605171362E0,3.486510813E-1,-3.636172712E-1,1.310304999E-1
1.607290217E0,3.388772309E-1,-3.477347791E-1,1.285870373E-1
1.609409071E0,3.315468729E-1,-2.768744528E-1,1.151480079E-1
1.611527925E0,3.144426346E-1,-1.302669197E-1,8.704823256E-2
1.613646779E0,2.936732471E-1,-2.886336111E-2,6.139190868E-2
1.615765633E0,2.704603672E-1,1.878409274E-2,4.428769648E-2
1.617884435E0,2.448040545E-1,1.389717404E-2,3.084867075E-2
1.620003290E0,2.215912044E-1,-3.252854943E-2,2.107483521E-2
1.622122144E0,1.983783394E-1,-9.239330143E-2,1.374445762E-2
1.624240946E0,1.739437431E-1,-1.449276656E-1,1.007926930E-2
1.626359800E0,1.495091617E-1,-1.754709035E-1,7.635809947E-3
1.628478654E0,1.250745654E-1,-1.937968582E-1,6.414080039E-3
1.630597508E0,1.006399691E-1,-2.072358727E-1,7.635809947E-3
1.632716362E0,7.987056673E-2,-2.218966335E-1,8.857538924E-3
1.634835165E0,5.665770918E-2,-2.426660359E-1,1.618791744E-2
1.636954019E0,3.711003438E-2,-2.719875574E-1,2.351829410E-2
1.639072873E0,1.634063199E-2,-2.988655865E-1,3.207040206E-2
1.641191727E0,4.581485991E-4,-3.257436454E-1,4.184423760E-2
1.643310581E0,-1.420260593E-2,-3.428478539E-1,5.039634556E-2
1.645429383E0,-2.641990222E-2,-3.465130329E-1,5.772672221E-2
1.647548237E0,-3.497200832E-2,-3.257436454E-1,6.139190868E-2
1.649667092E0,-4.474584386E-2,-2.634354234E-1,5.772672221E-2
1.651785946E0,-5.085449293E-2,-1.742491722E-1,5.528326333E-2
1.653904748E0,-4.718930274E-2,-7.528908551E-2,5.039634556E-2
1.656023602E0,-4.352411628E-2,2.244928107E-2,4.673115537E-2
1.658142456E0,-3.985892609E-2,1.201876476E-1,4.673115537E-2
1.660261310E0,-3.619373962E-2,2.032652497E-1,4.673115537E-2
1.662380112E0,-3.252854943E-2,2.692386508E-1,4.917461425E-2
1.664498967E0,-3.375028074E-2,3.132209182E-1,5.283980444E-2
1.666617821E0,-3.497200832E-2,3.388772309E-1,5.772672221E-2
1.668736675E0,-3.985892609E-2,3.498727977E-1,6.383536756E-2
1.670855529E0,-4.718930274E-2,3.364337683E-1,6.994401664E-2
1.672974331E0,-4.963276163E-2,3.095557392E-1,7.971785218E-2
1.675093185E0,-5.451968312E-2,2.631300092E-1,8.949168772E-2
1.677212040E0,-5.574141070E-2,2.044869810E-1,1.029307172E-1
1.679330894E0,-5.574141070E-2,1.385135949E-1,1.163697392E-1
1.681449696E0,-5.696314201E-2,6.520981342E-2,1.273653060E-1
1.683568550E0,-5.207622424E-2,-1.420260593E-2,1.420260668E-1
1.685687352E0,-4.352411628E-2,-9.483675659E-2,1.530216336E-1
1.687806258E0,-3.130681813E-2,-1.693622619E-1,1.627954692E-1
1.689925112E0,-1.420260593E-2,-2.390008420E-1,1.689041108E-1
1.692043915E0,4.123337101E-3,-2.976438701E-1,1.737910360E-1
1.694162769E0,2.367101051E-2,-3.526217043E-1,1.762344837E-1
1.696281623E0,4.688387364E-2,-3.966039717E-1,1.774562150E-1
1.698400477E0,7.131846249E-2,-4.247037470E-1,1.762344837E-1
1.700519331E0,9.208786488E-2,-4.405862093E-1,1.737910360E-1
1.702638133E0,1.165224537E-1,-4.442514181E-1,1.689041108E-1
1.704756987E0,1.397353113E-1,-4.405862093E-1,1.627954692E-1
1.706875842E0,1.629481763E-1,-4.308123887E-1,1.591302752E-1
1.708994696E0,1.849393100E-1,-4.149298966E-1,1.542433500E-1
1.711113550E0,2.008218020E-1,-3.990474045E-1,1.493564397E-1
1.713232352E0,2.179260105E-1,-3.819431961E-1,1.469129771E-1
1.715351206E0,2.338084877E-1,-3.636172712E-1,1.469129771E-1
1.717470060E0,2.472475171E-1,-3.477347791E-1,1.505781710E-1
1.719588915E0,2.594648004E-1,-3.379609287E-1,1.554650813E-1
1.721707717E0,2.655734718E-1,-3.294088244E-1,1.627954692E-1
1.723826571E0,2.729038298E-1,-3.318522871E-1,1.701258421E-1
1.725945425E0,2.802342176E-1,-3.355174661E-1,1.774562150E-1
1.728064279E0,2.863428593E-1,-3.465130329E-1,1.872300506E-1
1.730183081E0,2.924515009E-1,-3.648389876E-1,1.957821548E-1
1.732301935E0,2.973384261E-1,-3.831649423E-1,2.055560052E-1
1.734420790E0,3.034470677E-1,-4.051560760E-1,2.128863782E-1
1.736539644E0,3.095557392E-1,-4.308123887E-1,2.214384824E-1
1.738658342E0,3.205513060E-1,-4.540252388E-1,2.275471240E-1
1.740777300E0,3.278816640E-1,-4.711294472E-1,2.324340492E-1
1.742896154E0,3.400989771E-1,-4.845684767E-1,2.373209596E-1
1.745015008E0,3.547597229E-1,-4.931205809E-1,2.422078848E-1
1.747133862E0,3.743073940E-1,-4.992292523E-1,2.458730787E-1
1.749252717E0,3.914116025E-1,-4.980075061E-1,2.483165264E-1
1.751371519E0,4.121810198E-1,-4.931205809E-1,2.507599890E-1
1.753490373E0,4.329504073E-1,-4.821250141E-1,2.532034516E-1
1.755609227E0,4.524980783E-1,-4.650208056E-1,2.556469142E-1
1.757728081E0,4.683805704E-1,-4.393644929E-1,2.580903769E-1
1.759846883E0,4.854847789E-1,-4.063777924E-1,2.629773021E-1
1.761965737E0,4.977020919E-1,-3.672824502E-1,2.703076601E-1
1.764084592E0,5.050324798E-1,-3.294088244E-1,2.788597643E-1
1.766203446E0,5.111411214E-1,-2.952004075E-1,2.861901522E-1
1.768322300E0,5.123628378E-1,-2.622137070E-1,2.947422564E-1
1.770441102E0,5.086976290E-1,-2.328922004E-1,3.020726442E-1
1.772559956E0,5.001455545E-1,-2.060141414E-1,3.094030023E-1
1.774678810E0,4.879282415E-1,-1.876882017E-1,3.179551065E-1
1.776797665E0,4.744892120E-1,-1.779143661E-1,3.265072107E-1
1.778916519E0,4.598284662E-1,-1.644753367E-1,3.362810612E-1
1.781035321E0,4.427242577E-1,-1.583666950E-1,3.460549116E-1
1.783154175E0,4.305069447E-1,-1.559232324E-1,3.570504785E-1
1.785273029E0,4.134027362E-1,-1.547015011E-1,3.680460155E-1
1.787391883E0,3.975202441E-1,-1.522580534E-1,3.778198659E-1
1.789510685E0,3.840812445E-1,-1.449276656E-1,3.863719702E-1
1.791629540E0,3.730856776E-1,-1.375972927E-1,3.937023580E-1
1.793748394E0,3.620901108E-1,-1.217148080E-1,3.973675370E-1
1.795867248E0,3.498727977E-1,-9.972367436E-2,3.998109996E-1
1.797986050E0,3.425424397E-1,-7.651081681E-2,3.998109996E-1
1.800104904E0,3.364337683E-1,-5.085449293E-2,3.998109996E-1
1.802223758E0,3.291034102E-1,-2.031125315E-2,3.961458206E-1
1.804342612E0,3.242164850E-1,6.566796452E-3,3.937023580E-1
1.806461467E0,3.181078434E-1,3.833176568E-2,3.924806118E-1
1.808580321E0,3.132209182E-1,6.765327603E-2,3.888154328E-1
1.810699123E0,3.119991720E-1,8.842267841E-2,3.863719702E-1
1.812817977E0,3.107774556E-1,1.091920808E-1,3.839285076E-1
1.814936831E0,3.058905303E-1,1.238528341E-1,3.827067912E-1
1.817055685E0,3.046688139E-1,1.348484010E-1,3.827067912E-1
1.819174487E0,3.034470677E-1,1.385135949E-1,3.863719702E-1
1.821293342E0,3.022253513E-1,1.372918636E-1,3.912588954E-1
1.823412196E0,3.034470677E-1,1.287397593E-1,3.949240744E-1
1.825531050E0,3.034470677E-1,1.238528341E-1,4.010327160E-1
1.827649852E0,3.071122766E-1,1.165224537E-1,4.071413875E-1
1.829768706E0,3.095557392E-1,1.116355360E-1,4.120282829E-1
1.831887560E0,3.107774556E-1,1.055268943E-1,4.156934917E-1
1.834006415E0,3.168860972E-1,9.941824526E-2,4.205803871E-1
1.836125269E0,3.205513060E-1,9.453132749E-2,4.254673123E-1
1.838244123E0,3.266599476E-1,8.964440972E-2,4.303542376E-1
1.840362925E0,3.352120519E-1,7.987056673E-2,4.364628792E-1
1.842481779E0,3.437641561E-1,7.376192510E-2,4.413498044E-1
1.844600633E0,3.523162603E-1,6.643154472E-2,4.450149834E-1
1.846719487E0,3.596466482E-1,5.299251899E-2,4.462367296E-1
1.848838290E0,3.706422150E-1,3.466657549E-2,4.486801922E-1
1.850957144E0,3.779725730E-1,1.511890348E-2,4.511236250E-1
1.853075998E0,3.840812445E-1,-4.428769462E-3,4.535670877E-1
1.855194852E0,3.877464235E-1,-2.275471389E-2,4.560105503E-1
1.857313706E0,3.938550651E-1,-3.985892609E-2,4.572322965E-1
1.859432508E0,3.975202441E-1,-5.574141070E-2,4.608974755E-1
1.861551362E0,3.987419903E-1,-7.162389904E-2,4.633409381E-1
1.863670217E0,4.024071693E-1,-8.750637621E-2,4.670061171E-1
1.865789071E0,4.036289155E-1,-1.021671370E-1,4.694495797E-1
1.867907873E0,4.048506320E-1,-1.156061590E-1,4.718930423E-1
1.870026727E0,4.036289155E-1,-1.278234571E-1,4.731147587E-1
1.872145581E0,4.048506320E-1,-1.363755614E-1,4.755582213E-1
1.874264435E0,4.011854529E-1,-1.375972927E-1,4.755582213E-1
1.876383237E0,4.011854529E-1,-1.363755614E-1,4.804451466E-1
1.878502092E0,3.987419903E-1,-1.314886510E-1,4.828886092E-1
1.880620946E0,3.950767815E-1,-1.241582632E-1,4.853320718E-1
1.882739800E0,3.938550651E-1,-1.192713454E-1,4.853320718E-1
1.884858654E0,3.865246773E-1,-1.119409725E-1,4.865537882E-1
1.886977508E0,3.804160357E-1,-1.058323234E-1,4.877755344E-1
1.889096310E0,3.743073940E-1,-1.021671370E-1,4.877755344E-1
1.891215165E0,3.669770062E-1,-9.728021920E-2,4.877755344E-1
1.893334019E0,3.608683646E-1,-9.728021920E-2,4.877755344E-1
1.895452873E0,3.572031856E-1,-9.728021920E-2,4.902189970E-1
1.897571675E0,3.523162603E-1,-9.972367436E-2,4.902189970E-1
1.899690529E0,3.474293351E-1,-1.058323234E-1,4.889972508E-1
1.901809383E0,3.474293351E-1,-1.094975099E-1,4.902189970E-1
1.903928237E0,3.486510813E-1,-1.131627038E-1,4.902189970E-1
1.906047040E0,3.510945439E-1,-1.143844277E-1,4.853320718E-1
1.908165894E0,3.523162603E-1,-1.094975099E-1,4.816668928E-1
1.910284748E0,3.559814394E-1,-1.058323234E-1,4.780016840E-1
1.912403602E0,3.608683646E-1,-1.033888608E-1,4.755582213E-1
1.914522456E0,3.633118272E-1,-9.850194305E-2,4.718930423E-1
1.916641258E0,3.645335436E-1,-9.728021920E-2,4.694495797E-1
1.918760112E0,3.669770062E-1,-9.605848789E-2,4.670061171E-1
1.920878967E0,3.694204688E-1,-9.361502528E-2,4.633409381E-1
1.922997821E0,3.657552898E-1,-8.872810751E-2,4.560105503E-1
1.925116675E0,3.657552898E-1,-7.284562290E-2,4.437932670E-1
1.927235477E0,3.608683646E-1,-4.352411628E-2,4.315759540E-1
1.929354331E0,3.547597229E-1,-1.664606482E-2,4.291325212E-1
1.931473185E0,3.498727977E-1,4.123337101E-3,4.327977002E-1
1.933592040E0,3.437641561E-1,2.000582218E-2,4.425715208E-1
1.935710894E0,3.376555145E-1,3.222311661E-2,4.572322965E-1
1.937829696E0,3.303251266E-1,3.955349326E-2,4.743365049E-1
1.939948550E0,3.193295598E-1,4.444041103E-2,4.902189970E-1
1.942067352E0,3.083339930E-1,4.810560122E-2,5.024362803E-1
1.944186258E0,2.912297845E-1,6.032289565E-2,5.134318471E-1
1.946305060E0,2.741255760E-1,7.864884287E-2,5.195404887E-1
1.948423915E0,2.521344423E-1,1.030834317E-1,5.244274139E-1
1.950542769E0,2.301433086E-1,1.372918636E-1,5.280926228E-1
1.952661623E0,2.069304436E-1,1.837175786E-1,5.329795480E-1
1.954780477E0,1.788306683E-1,2.435823381E-1,5.403099060E-1
1.956899279E0,1.531743407E-1,3.132209182E-1,5.464185476E-1
1.959018133E0,1.299614757E-1,3.914116025E-1,5.561923981E-1
1.961136987E0,1.067486182E-1,4.744892120E-1,5.684096813E-1
1.963255842E0,8.109229803E-2,5.612320304E-1,5.818486810E-1
1.965374644E0,6.154462695E-2,6.443096399E-1,5.965094566E-1
1.967493498E0,3.955349326E-2,7.261655331E-1,6.087267399E-1
1.969612352E0,1.878409274E-2,7.982475758E-1,6.221657991E-1
1.971731206E0,4.581485991E-4,8.568905592E-1,6.368265152E-1
1.973850060E0,-1.542433538E-2,9.020945430E-1,6.490437984E-1
1.975968915E0,-2.641990222E-2,9.363030195E-1,6.563742161E-1
1.978087717E0,-3.497200832E-2,9.570723772E-1,6.637045741E-1
1.980206571E0,-4.108065739E-2,9.717331529E-1,6.685914993E-1
1.982325425E0,-4.718930274E-2,9.705114365E-1,6.734784245E-1
1.984444279E0,-4.718930274E-2,9.595158696E-1,6.734784245E-1
1.986563081E0,-4.841103405E-2,9.387464523E-1,6.685914993E-1
1.988681935E0,-4.352411628E-2,9.082031846E-1,6.600393653E-1
1.990800790E0,-3.863719851E-2,8.715513349E-1,6.453786492E-1
1.992919644E0,-2.641990222E-2,8.251255751E-1,6.282744408E-1
1.995038498E0,-1.175914705E-2,7.774781585E-1,6.099484563E-1
1.997157300E0,6.566796452E-3,7.286089659E-1,5.904008150E-1
1.999276154E0,2.855792828E-2,6.809614897E-1,5.732966065E-1
2.001395008E0,5.421425030E-2,6.296488643E-1,5.574141145E-1
2.003513810E0,8.109229803E-2,5.795579553E-1,5.403099060E-1
2.005632717E0,1.104138121E-1,5.270236135E-1,5.256491303E-1
2.007751571E0,1.397353113E-1,4.757109582E-1,5.109884143E-1
2.009870373E0,1.678351015E-1,4.268417656E-1,4.963276386E-1
2.011989227E0,2.008218020E-1,3.743073940E-1,4.841103256E-1
2.014108081E0,2.276998460E-1,3.291034102E-1,4.743365049E-1
2.016226883E0,2.570213675E-1,2.924515009E-1,4.657844007E-1
2.018345737E0,2.838993967E-1,2.619082630E-1,4.584540129E-1
2.020464592E0,3.095557392E-1,2.362519503E-1,4.523453712E-1
2.022583446E0,3.327685893E-1,2.118173689E-1,4.474584460E-1
2.024702300E0,3.510945439E-1,1.934914142E-1,4.425715208E-1
2.026821102E0,3.657552898E-1,1.788306683E-1,4.352411628E-1
2.028939956E0,3.779725730E-1,1.653916389E-1,4.266890585E-1
2.031058810E0,3.877464235E-1,1.568395346E-1,4.218021333E-1
2.033177665E0,3.889681399E-1,1.568395346E-1,4.132500291E-1
2.035296519E0,3.853029609E-1,1.592829973E-1,4.022544622E-1
2.037415321E0,3.779725730E-1,1.580612659E-1,3.949240744E-1
2.039534175E0,3.657552898E-1,1.617264450E-1,3.851502538E-1
2.041653029E0,3.535379767E-1,1.666133702E-1,3.765981495E-1
2.043771883E0,3.339903057E-1,1.739437431E-1,3.668242991E-1
2.045890737E0,3.132209182E-1,1.824958473E-1,3.594939113E-1
2.048009540E0,2.936732471E-1,1.959348768E-1,3.497200906E-1
2.050128394E0,2.716821134E-1,2.118173689E-1,3.411679864E-1
2.052247248E0,2.472475171E-1,2.301433086E-1,3.289506733E-1
2.054366102E0,2.215912044E-1,2.533561587E-1,3.142899275E-1
2.056484904E0,1.959348768E-1,2.765690386E-1,2.971857190E-1
2.058603758E0,1.702785641E-1,3.022253513E-1,2.813032269E-1
2.060722612E0,1.421787739E-1,3.266599476E-1,2.617555559E-1
2.062841467E0,1.140789986E-1,3.572031856E-1,2.458730787E-1
2.064960321E0,8.720094711E-2,3.816377819E-1,2.287688553E-1
2.067079123E0,6.032289565E-2,4.072940946E-1,2.165515572E-1
2.069197977E0,3.466657549E-2,4.280634820E-1,2.043342739E-1
2.071316831E0,9.010255337E-3,4.512763619E-1,1.945604384E-1
2.073435685E0,-1.786779426E-2,4.696022868E-1,1.847866029E-1
2.075554540E0,-4.474584386E-2,4.854847789E-1,1.774562150E-1
2.077673342E0,-6.795870513E-2,4.952586293E-1,1.689041108E-1
2.079792196E0,-9.361502528E-2,4.989238083E-1,1.615737379E-1
2.081911050E0,-1.168278903E-1,4.964803457E-1,1.554650813E-1
2.084029904E0,-1.351538301E-1,4.940368831E-1,1.505781710E-1
2.086148758E0,-1.534797698E-1,4.854847789E-1,1.444695145E-1
2.088267560E0,-1.705839932E-1,4.769326746E-1,1.408043355E-1
2.090386415E0,-1.815795600E-1,4.671588540E-1,1.346956789E-1
2.092505269E0,-1.913533956E-1,4.586067200E-1,1.310304999E-1
2.094624123E0,-1.974620372E-1,4.488328993E-1,1.298087686E-1
2.096742977E0,-1.986837685E-1,4.390590489E-1,1.261435747E-1
2.098861779E0,-1.999054998E-1,4.256200492E-1,1.261435747E-1
2.100980633E0,-1.974620372E-1,4.109592736E-1,1.237001196E-1
2.103099487E0,-1.962403059E-1,3.938550651E-1,1.237001196E-1
2.105218342E0,-1.901316643E-1,3.743073940E-1,1.237001196E-1
2.107337144E0,-1.864664704E-1,3.535379767E-1,1.237001196E-1
2.109455998E0,-1.840230078E-1,3.352120519E-1,1.224783882E-1
2.111574852E0,-1.803578287E-1,3.156643808E-1,1.212566569E-1
2.113693706E0,-1.791360974E-1,2.985601723E-1,1.175914705E-1
2.115812560E0,-1.766926348E-1,2.765690386E-1,1.139262840E-1
2.117931362E0,-1.766926348E-1,2.557996213E-1,1.102610901E-1
2.120050217E0,-1.766926348E-1,2.350302190E-1,1.053741723E-1
2.122169071E0,-1.766926348E-1,2.154825479E-1,1.017089859E-1
2.124287925E0,-1.754709035E-1,1.971566081E-1,9.682206810E-2
2.126406779E0,-1.718057245E-1,1.849393100E-1,9.437860548E-2
2.128525581E0,-1.681405306E-1,1.715002805E-1,9.315688163E-2
2.130644435E0,-1.644753367E-1,1.629481763E-1,8.826996386E-2
2.132763290E0,-1.583666950E-1,1.556178033E-1,8.704823256E-2
2.134882144E0,-1.534797698E-1,1.495091617E-1,8.216131479E-2
2.137000946E0,-1.461493969E-1,1.434005052E-1,7.727439702E-2
2.139119800E0,-1.388190240E-1,1.385135949E-1,7.483093441E-2
2.141238654E0,-1.314886510E-1,1.372918636E-1,6.872228533E-2
2.143357456E0,-1.229365394E-1,1.324049383E-1,6.383536756E-2
2.145476362E0,-1.131627038E-1,1.287397593E-1,5.650499091E-2
2.147595165E0,-1.070540547E-1,1.262962967E-1,5.161807314E-2
2.149714019E0,-9.972367436E-2,1.214093715E-1,4.673115537E-2
2.151832873E0,-9.361502528E-2,1.201876476E-1,4.062250629E-2
2.153951727E0,-8.872810751E-2,1.165224537E-1,3.451386094E-2
2.156070581E0,-8.384118974E-2,1.140789986E-1,3.207040206E-2
2.158189383E0,-7.895427197E-2,1.116355360E-1,2.962694131E-2
2.160308237E0,-7.528908551E-2,1.091920808E-1,2.840521187E-2
2.162427092E0,-7.406735420E-2,1.067486182E-1,2.840521187E-2
2.164545946E0,-6.918043643E-2,1.067486182E-1,2.840521187E-2
2.166664800E0,-6.673697382E-2,1.067486182E-1,3.084867075E-2
2.168783602E0,-6.551524997E-2,1.091920808E-1,3.084867075E-2
2.170902456E0,-6.429351866E-2,1.104138121E-1,3.207040206E-2
2.173021310E0,-6.429351866E-2,1.128572673E-1,3.329212964E-2
2.175140165E0,-6.673697382E-2,1.140789986E-1,3.329212964E-2
2.177259019E0,-6.673697382E-2,1.226311028E-1,3.084867075E-2
2.179377821E0,-7.284562290E-2,1.275180280E-1,2.840521187E-2
2.181496675E0,-8.017600328E-2,1.324049383E-1,2.229656465E-2
2.183615529E0,-8.750637621E-2,1.421787739E-1,1.740964688E-2
2.185734383E0,-9.239330143E-2,1.495091617E-1,1.252272818E-2
2.187853185E0,-1.009454057E-1,1.605047137E-1,6.414080039E-3
2.189972040E0,-1.058323234E-1,1.702785641E-1,2.748891478E-3
2.192090894E0,-1.143844277E-1,1.800523996E-1,-9.162971983E-4
2.194209748E0,-1.217148080E-1,1.922696829E-1,-3.359756200E-3
2.196328602E0,-1.278234571E-1,2.008218020E-1,-5.803215317E-3
2.198447404E0,-1.339320987E-1,2.130390853E-1,-7.024944760E-3
2.200566258E0,-1.400407553E-1,2.252563834E-1,-8.246674202E-3
2.202685112E0,-1.461493969E-1,2.338084877E-1,-1.191186346E-2
2.204803967E0,-1.547015011E-1,2.460257858E-1,-1.435532235E-2
2.206922821E0,-1.632536054E-1,2.557996213E-1,-1.679878123E-2
2.209041623E0,-1.730274558E-1,2.643517256E-1,-2.046396956E-2
2.211160477E0,-1.840230078E-1,2.729038298E-1,-2.290742844E-2
2.213279331E0,-1.937968582E-1,2.790125012E-1,-2.535088919E-2
2.215398185E0,-2.023489624E-1,2.838993967E-1,-2.535088919E-2
2.217517040E0,-2.157879770E-1,2.887863219E-1,-2.657261863E-2
2.219635842E0,-2.255618125E-1,2.948949635E-1,-2.779434808E-2
2.221754696E0,-2.390008420E-1,2.997818887E-1,-2.901607752E-2
2.223873550E0,-2.451094985E-1,3.058905303E-1,-3.145953640E-2
2.225992404E0,-2.536616027E-1,3.107774556E-1,-3.634645417E-2
2.228111258E0,-2.585485280E-1,3.156643808E-1,-4.001164436E-2
2.230230060E0,-2.634354234E-1,3.217730224E-1,-4.856374860E-2
2.232348915E0,-2.671006322E-1,3.278816640E-1,-5.467239767E-2
2.234467769E0,-2.671006322E-1,3.327685893E-1,-6.322450191E-2
2.236586623E0,-2.695440948E-1,3.339903057E-1,-7.299833745E-2
2.238705477E0,-2.683223486E-1,3.339903057E-1,-8.399390429E-2
2.240824279E0,-2.707658112E-1,3.327685893E-1,-9.621120244E-2
2.242943133E0,-2.707658112E-1,3.303251266E-1,-1.072067693E-1
2.245061987E0,-2.695440948E-1,3.291034102E-1,-1.194240674E-1
2.247180842E0,-2.671006322E-1,3.229947388E-1,-1.353065521E-1
2.249299696E0,-2.634354234E-1,3.205513060E-1,-1.487455666E-1
2.251418498E0,-2.597702444E-1,3.144426346E-1,-1.646280587E-1
2.253537352E0,-2.561050653E-1,3.119991720E-1,-1.817322671E-1
2.255656206E0,-2.536616027E-1,3.058905303E-1,-1.988364905E-1
2.257775060E0,-2.487746775E-1,3.022253513E-1,-2.159406990E-1
2.259893915E0,-2.451094985E-1,2.997818887E-1,-2.306014597E-1
2.262012717E0,-2.365573794E-1,2.961167097E-1,-2.452622056E-1
2.264131519E0,-2.292270064E-1,2.936732471E-1,-2.587012351E-1
2.266250425E0,-2.218966335E-1,2.961167097E-1,-2.709185183E-1
2.268369279E0,-2.121227980E-1,2.936732471E-1,-2.819140851E-1
2.270488133E0,-2.011272311E-1,2.924515009E-1,-2.941313982E-1
2.272606935E0,-1.901316643E-1,2.900080681E-1,-3.039052188E-1
2.274725790E0,-1.779143661E-1,2.875646055E-1,-3.100138903E-1
2.276844644E0,-1.656970680E-1,2.851211429E-1,-3.197877109E-1
2.278963498E0,-1.559232324E-1,2.802342176E-1,-3.295615613E-1
2.281082300E0,-1.485928595E-1,2.790125012E-1,-3.344484568E-1
2.283201154E0,-1.400407553E-1,2.814559340E-1,-3.405571282E-1
2.285320008E0,-1.327103674E-1,2.863428593E-1,-3.430005610E-1
2.287438862E0,-1.290451884E-1,2.887863219E-1,-3.466657698E-1
2.289557717E0,-1.266017258E-1,2.948949635E-1,-3.454440236E-1
2.291676519E0,-1.229365394E-1,3.034470677E-1,-3.466657698E-1
2.293795373E0,-1.192713454E-1,3.107774556E-1,-3.442223072E-1
2.295914227E0,-1.180496216E-1,3.242164850E-1,-3.417788446E-1
2.298033081E0,-1.180496216E-1,3.413206935E-1,-3.381136656E-1
2.300151935E0,-1.119409725E-1,3.596466482E-1,-3.344484568E-1
2.302270737E0,-1.119409725E-1,3.840812445E-1,-3.320049942E-1
2.304389592E0,-1.107192412E-1,4.036289155E-1,-3.283398151E-1
2.306508446E0,-1.143844277E-1,4.195113778E-1,-3.258963525E-1
2.308627300E0,-1.168278903E-1,4.305069447E-1,-3.246746361E-1
2.310746154E0,-1.192713454E-1,4.390590489E-1,-3.234528899E-1
2.312864956E0,-1.253799945E-1,4.390590489E-1,-3.222311735E-1
2.314983862E0,-1.327103674E-1,4.415025115E-1,-3.222311735E-1
2.317102665E0,-1.351538301E-1,4.402807951E-1,-3.210094273E-1
2.319221519E0,-1.424842030E-1,4.366155863E-1,-3.234528899E-1
2.321340373E0,-1.461493969E-1,4.305069447E-1,-3.222311735E-1
2.323459175E0,-1.510363221E-1,4.292852283E-1,-3.234528899E-1
2.325578029E0,-1.461493969E-1,4.268417656E-1,-3.222311735E-1
2.327696883E0,-1.461493969E-1,4.243983030E-1,-3.234528899E-1
2.329815737E0,-1.424842030E-1,4.207331240E-1,-3.210094273E-1
2.331934592E0,-1.400407553E-1,4.207331240E-1,-3.173442483E-1
2.334053394E0,-1.375972927E-1,4.182896614E-1,-3.149007857E-1
2.336172248E0,-1.314886510E-1,4.182896614E-1,-3.124573231E-1
2.338291102E0,-1.302669197E-1,4.219548404E-1,-3.075704277E-1
2.340409956E0,-1.278234571E-1,4.231765866E-1,-3.039052188E-1
2.342528758E0,-1.241582632E-1,4.268417656E-1,-3.002400398E-1
2.344647612E0,-1.253799945E-1,4.329504073E-1,-2.965748608E-1
2.346766467E0,-1.266017258E-1,4.390590489E-1,-2.916879356E-1
2.348885321E0,-1.290451884E-1,4.463894367E-1,-2.892444730E-1
2.351004175E0,-1.302669197E-1,4.537198246E-1,-2.843575478E-1
2.353123029E0,-1.388190240E-1,4.634936452E-1,-2.794706225E-1
2.355241831E0,-1.424842030E-1,4.683805704E-1,-2.721402645E-1
2.357360685E0,-1.485928595E-1,4.744892120E-1,-2.672533393E-1
2.359479540E0,-1.547015011E-1,4.793761373E-1,-2.611446977E-1
2.361598394E0,-1.644753367E-1,4.842630625E-1,-2.574795187E-1
2.363717248E0,-1.718057245E-1,4.879282415E-1,-2.538143098E-1
2.365836050E0,-1.828012913E-1,4.879282415E-1,-2.538143098E-1
2.367954904E0,-1.962403059E-1,4.891499579E-1,-2.550360560E-1
2.370073758E0,-2.096793354E-1,4.915934205E-1,-2.574795187E-1
2.372192612E0,-2.231183648E-1,4.915934205E-1,-2.623664141E-1
2.374311415E0,-2.365573794E-1,4.903717041E-1,-2.648098767E-1
2.376430269E0,-2.426660359E-1,4.854847789E-1,-2.660316229E-1
2.378549123E0,-2.524398565E-1,4.830413163E-1,-2.672533393E-1
2.380667977E0,-2.548833191E-1,4.732674956E-1,-2.672533393E-1
2.382786831E0,-2.548833191E-1,4.634936452E-1,-2.623664141E-1
2.384905633E0,-2.499964088E-1,4.476111531E-1,-2.574795187E-1
2.387024487E0,-2.438877672E-1,4.341721535E-1,-2.501491308E-1
2.389143342E0,-2.304487377E-1,4.134027362E-1,-2.428187430E-1
2.391262196E0,-2.145662606E-1,3.914116025E-1,-2.330449075E-1
2.393381050E0,-1.986837685E-1,3.633118272E-1,-2.244928032E-1
2.395499852E0,-1.779143661E-1,3.291034102E-1,-2.171624303E-1
2.397618706E0,-1.571449637E-1,2.912297845E-1,-2.098320574E-1
2.399737560E0,-1.351538301E-1,2.484692484E-1,-2.049451321E-1
2.401856415E0,-1.119409725E-1,2.008218020E-1,-2.000582218E-1
2.403975269E0,-8.994983882E-2,1.495091617E-1,-1.976147592E-1
2.406094071E0,-6.795870513E-2,9.819651395E-2,-1.951712966E-1
2.408212925E0,-4.841103405E-2,3.955349326E-2,-1.951712966E-1
2.410331779E0,-2.886336111E-2,-1.542433538E-2,-1.951712966E-1
2.412450633E0,-1.175914705E-2,-7.284562290E-2,-1.951712966E-1
2.414569435E0,1.679878100E-3,-1.266017258E-1,-1.963930279E-1
2.416688290E0,1.389717404E-2,-1.791360974E-1,-1.976147592E-1
2.418807144E0,2.367101051E-2,-2.304487377E-1,-1.976147592E-1
2.420925998E0,3.344484791E-2,-2.768744528E-1,-1.976147592E-1
2.423044852E0,3.711003438E-2,-3.220784664E-1,-1.951712966E-1
2.425163654E0,4.321868345E-2,-3.660607338E-1,-1.939495653E-1
2.427282508E0,4.077522457E-2,-4.051560760E-1,-1.915061027E-1
2.429401362E0,3.955349326E-2,-4.381427765E-1,-1.890626550E-1
2.431520217E0,3.588830680E-2,-4.699077308E-1,-1.841757298E-1
2.433639071E0,3.344484791E-2,-4.967857897E-1,-1.792888194E-1
2.435757873E0,3.100138716E-2,-5.199986696E-1,-1.731801629E-1
2.437876727E0,2.733619884E-2,-5.383245945E-1,-1.634063274E-1
2.439995581E0,2.367101051E-2,-5.542070866E-1,-1.560759544E-1
2.442114435E0,1.878409274E-2,-5.664243698E-1,-1.487455666E-1
2.444233290E0,1.756236330E-2,-5.774199367E-1,-1.414151937E-1
2.446352092E0,1.511890348E-2,-5.835285783E-1,-1.328630894E-1
2.448470946E0,1.389717404E-2,-5.884155035E-1,-1.243109852E-1
2.450589800E0,1.389717404E-2,-5.920807123E-1,-1.182023361E-1
2.452708654E0,2.000582218E-2,-5.700895786E-1,-1.096502244E-1
2.454827508E0,3.466657549E-2,-5.175551772E-1,-1.096502244E-1
2.456946310E0,5.177079141E-2,-4.589121640E-1,-1.206457913E-1
2.459065165E0,6.276635826E-2,-4.210385382E-1,-1.377500147E-1
2.461184019E0,6.276635826E-2,-4.100429714E-1,-1.548542231E-1
2.463302873E0,5.054906011E-2,-4.259254634E-1,-1.670715213E-1
2.465421727E0,3.466657549E-2,-4.479165971E-1,-1.682932526E-1
2.467540529E0,1.145371422E-2,-4.674642682E-1,-1.646280587E-1
2.469659383E0,-6.872228812E-3,-4.747946560E-1,-1.597411335E-1
2.471778237E0,-2.153298259E-2,-4.711294472E-1,-1.524107605E-1
2.473897092E0,-3.375028074E-2,-4.491383433E-1,-1.487455666E-1
2.476015894E0,-3.985892609E-2,-4.222602844E-1,-1.475238502E-1
2.478134748E0,-4.474584386E-2,-3.892735839E-1,-1.511890292E-1
2.480253602E0,-4.963276163E-2,-3.599520624E-1,-1.560759544E-1
2.482372456E0,-4.963276163E-2,-3.318522871E-1,-1.597411335E-1
2.484491310E0,-5.451968312E-2,-3.123046160E-1,-1.682932526E-1
2.486610165E0,-6.429351866E-2,-2.976438701E-1,-1.719584316E-1
2.488728967E0,-7.284562290E-2,-2.915352285E-1,-1.768453568E-1
2.490847821E0,-8.628465235E-2,-2.903134823E-1,-1.805105358E-1
2.492966675E0,-9.605848789E-2,-2.915352285E-1,-1.817322671E-1
2.495085529E0,-1.131627038E-1,-2.927569449E-1,-1.817322671E-1
2.497204383E0,-1.266017258E-1,-2.939786613E-1,-1.805105358E-1
2.499323185E0,-1.400407553E-1,-2.952004075E-1,-1.792888194E-1
2.501442040E0,-1.522580534E-1,-2.939786613E-1,-1.768453568E-1
2.503560894E0,-1.644753367E-1,-2.939786613E-1,-1.780670881E-1
2.505679748E0,-1.766926348E-1,-2.927569449E-1,-1.756236255E-1
2.507798550E0,-1.876882017E-1,-2.927569449E-1,-1.756236255E-1
2.509917404E0,-1.986837685E-1,-2.890917659E-1,-1.744018942E-1
2.512036258E0,-2.084576041E-1,-2.842048407E-1,-1.768453568E-1
2.514155112E0,-2.194531709E-1,-2.768744528E-1,-1.780670881E-1
2.516273967E0,-2.267835438E-1,-2.695440948E-1,-1.768453568E-1
2.518392769E0,-2.377791107E-1,-2.634354234E-1,-1.780670881E-1
2.520511623E0,-2.463312149E-1,-2.548833191E-1,-1.780670881E-1
2.522630477E0,-2.536616027E-1,-2.438877672E-1,-1.792888194E-1
2.524749331E0,-2.634354234E-1,-2.377791107E-1,-1.805105358E-1
2.526868185E0,-2.719875574E-1,-2.292270064E-1,-1.805105358E-1
2.528986987E0,-2.817613780E-1,-2.218966335E-1,-1.817322671E-1
2.531105842E0,-2.939786613E-1,-2.170097083E-1,-1.829539984E-1
2.533224696E0,-3.049742281E-1,-2.084576041E-1,-1.841757298E-1
2.535343550E0,-3.135263622E-1,-2.060141414E-1,-1.841757298E-1
2.537462404E0,-3.233001828E-1,-1.962403059E-1,-1.853974611E-1
2.539581206E0,-3.367392123E-1,-1.901316643E-1,-1.841757298E-1
2.541700060E0,-3.465130329E-1,-1.803578287E-1,-1.817322671E-1
2.543818915E0,-3.550651670E-1,-1.705839932E-1,-1.805105358E-1
2.545937769E0,-3.648389876E-1,-1.559232324E-1,-1.780670881E-1
2.548056623E0,-3.733910918E-1,-1.449276656E-1,-1.756236255E-1
2.550175477E0,-3.819431961E-1,-1.266017258E-1,-1.719584316E-1
2.552294279E0,-3.904953003E-1,-1.107192412E-1,-1.670715213E-1
2.554413133E0,-3.990474045E-1,-9.483675659E-2,-1.646280587E-1
2.556531987E0,-4.100429714E-1,-7.773254067E-2,-1.621845961E-1
2.558650790E0,-4.198168218E-1,-6.062832847E-2,-1.572976857E-1
2.560769644E0,-4.283689260E-1,-4.596757516E-2,-1.524107605E-1
2.562888498E0,-4.356993139E-1,-3.130681813E-2,-1.499672979E-1
2.565007352E0,-4.454731345E-1,-1.420260593E-2,-1.463021189E-1
2.567126206E0,-4.552469850E-1,2.901607659E-3,-1.426369250E-1
2.569245060E0,-4.650208056E-1,2.122755162E-2,-1.401934624E-1
2.571363862E0,-4.735729098E-1,4.321868345E-2,-1.377500147E-1
2.573482717E0,-4.857902229E-1,6.520981342E-2,-1.353065521E-1
2.575601571E0,-4.943423271E-1,8.964440972E-2,-1.328630894E-1
2.577720425E0,-5.028944016E-1,1.116355360E-1,-1.304196268E-1
2.579839227E0,-5.114465356E-1,1.372918636E-1,-1.291978955E-1
2.581958081E0,-5.212203860E-1,1.605047137E-1,-1.267544478E-1
2.584076935E0,-5.261073112E-1,1.861610413E-1,-1.255327165E-1
2.586195790E0,-5.334376693E-1,2.118173689E-1,-1.218675226E-1
2.588314644E0,-5.358811021E-1,2.448040545E-1,-1.182023361E-1
2.590433498E0,-5.407680273E-1,2.704603672E-1,-1.169806048E-1
2.592552300E0,-5.444332361E-1,2.936732471E-1,-1.157588735E-1
2.594671154E0,-5.505418777E-1,3.181078434E-1,-1.145371497E-1
2.596790008E0,-5.517635942E-1,3.376555145E-1,-1.169806048E-1
2.598908862E0,-5.542070866E-1,3.523162603E-1,-1.218675226E-1
2.601027717E0,-5.554288030E-1,3.657552898E-1,-1.267544478E-1
2.603146519E0,-5.578722358E-1,3.718639314E-1,-1.340848207E-1
2.605265373E0,-5.603157282E-1,3.791943192E-1,-1.438586563E-1
2.607384227E0,-5.615374446E-1,3.804160357E-1,-1.536324918E-1
2.609503081E0,-5.639809370E-1,3.828594983E-1,-1.646280587E-1
2.611621935E0,-5.639809370E-1,3.840812445E-1,-1.768453568E-1
2.613740737E0,-5.639809370E-1,3.853029609E-1,-1.915061027E-1
2.615859592E0,-5.615374446E-1,3.840812445E-1,-2.049451321E-1
2.617978446E0,-5.578722358E-1,3.840812445E-1,-2.196058929E-1
2.620097300E0,-5.566505194E-1,3.853029609E-1,-2.330449075E-1
2.622216154E0,-5.554288030E-1,3.889681399E-1,-2.464839369E-1
2.624335008E0,-5.480984449E-1,3.914116025E-1,-2.587012351E-1
2.626453810E0,-5.468766689E-1,3.987419903E-1,-2.684750557E-1
2.628572665E0,-5.383245945E-1,4.036289155E-1,-2.770271897E-1
2.630691519E0,-5.309942365E-1,4.072940946E-1,-2.868010104E-1
2.632810321E0,-5.236638188E-1,4.134027362E-1,-2.953531146E-1
2.634929175E0,-5.138899684E-1,4.158461988E-1,-3.051269650E-1
2.637048029E0,-5.077813268E-1,4.182896614E-1,-3.124573231E-1
2.639166883E0,-4.992292523E-1,4.195113778E-1,-3.185659945E-1
2.641285737E0,-4.870119393E-1,4.195113778E-1,-3.258963525E-1
2.643404592E0,-4.772381186E-1,4.170679152E-1,-3.307832778E-1
2.645523446E0,-4.686860144E-1,4.158461988E-1,-3.356702030E-1
2.647642248E0,-4.564687014E-1,4.085158110E-1,-3.393353820E-1
2.649761102E0,-4.442514181E-1,4.011854529E-1,-3.430005610E-1
2.651879956E0,-4.320341051E-1,3.926333487E-1,-3.442223072E-1
2.653998810E0,-4.198168218E-1,3.804160357E-1,-3.454440236E-1
2.656117665E0,-4.088212550E-1,3.657552898E-1,-3.466657698E-1
2.658236467E0,-3.929387629E-1,3.474293351E-1,-3.454440236E-1
2.660355269E0,-3.782780170E-1,3.303251266E-1,-3.454440236E-1
2.662474175E0,-3.648389876E-1,3.119991720E-1,-3.417788446E-1
2.664593029E0,-3.501782417E-1,2.924515009E-1,-3.393353820E-1
2.666711675E0,-3.355174661E-1,2.741255760E-1,-3.356702030E-1
2.668830685E0,-3.220784664E-1,2.533561587E-1,-3.283398151E-1
2.670949540E0,-3.074176908E-1,2.350302190E-1,-3.210094273E-1
2.673068394E0,-2.915352285E-1,2.167042792E-1,-3.112356067E-1
2.675187248E0,-2.756527364E-1,2.020435184E-1,-3.002400398E-1
2.677306050E0,-2.622137070E-1,1.873827726E-1,-2.892444730E-1
2.679424852E0,-2.487746775E-1,1.690568328E-1,-2.782489061E-1
2.681543758E0,-2.353356630E-1,1.531743407E-1,-2.709185183E-1
2.683662612E0,-2.231183648E-1,1.372918636E-1,-2.648098767E-1
2.685781467E0,-2.072358727E-1,1.177441850E-1,-2.587012351E-1
2.687900269E0,-1.962403059E-1,9.819651395E-2,-2.562577724E-1
2.690019123E0,-1.852447391E-1,7.620538026E-2,-2.562577724E-1
2.692137977E0,-1.742491722E-1,5.299251899E-2,-2.550360560E-1
2.694256831E0,-1.656970680E-1,2.977965772E-2,-2.562577724E-1
2.696375685E0,-1.559232324E-1,1.679878100E-3,-2.562577724E-1
2.698494487E0,-1.485928595E-1,-2.641990222E-2,-2.599229515E-1
2.700613342E0,-1.388190240E-1,-5.329795182E-2,-2.623664141E-1
2.702732196E0,-1.339320987E-1,-8.384118974E-2,-2.648098767E-1
2.704851050E0,-1.278234571E-1,-1.107192412E-1,-2.672533393E-1
2.706969904E0,-1.217148080E-1,-1.363755614E-1,-2.696968019E-1
2.709088758E0,-1.168278903E-1,-1.620318890E-1,-2.709185183E-1
2.711207560E0,-1.143844277E-1,-1.828012913E-1,-2.745837271E-1
2.713326415E0,-1.094975099E-1,-2.047924101E-1,-2.733619809E-1
2.715445269E0,-1.058323234E-1,-2.243400961E-1,-2.758054435E-1
2.717564123E0,-1.033888608E-1,-2.426660359E-1,-2.770271897E-1
2.719682977E0,-1.033888608E-1,-2.548833191E-1,-2.782489061E-1
2.721801779E0,-1.009454057E-1,-2.719875574E-1,-2.794706225E-1
2.723920633E0,-1.009454057E-1,-2.866483033E-1,-2.819140851E-1
2.726039487E0,-1.021671370E-1,-3.025307953E-1,-2.831358314E-1
2.728158342E0,-1.058323234E-1,-3.184132576E-1,-2.843575478E-1
2.730277196E0,-1.058323234E-1,-3.318522871E-1,-2.855792940E-1
2.732395998E0,-1.070540547E-1,-3.452913165E-1,-2.880227566E-1
2.734514852E0,-1.082757786E-1,-3.562868834E-1,-2.892444730E-1
2.736633706E0,-1.119409725E-1,-3.685041666E-1,-2.904661894E-1
2.738752560E0,-1.131627038E-1,-3.770562708E-1,-2.929096520E-1
2.740871415E0,-1.156061590E-1,-3.868301213E-1,-2.953531146E-1
2.742990217E0,-1.229365394E-1,-3.941605091E-1,-3.014617562E-1
2.745109071E0,-1.266017258E-1,-4.002691507E-1,-3.051269650E-1
2.747227925E0,-1.290451884E-1,-4.014908671E-1,-3.100138903E-1
2.749346779E0,-1.339320987E-1,-4.027126133E-1,-3.149007857E-1
2.751465633E0,-1.375972927E-1,-4.039343297E-1,-3.210094273E-1
2.753584435E0,-1.412624866E-1,-4.027126133E-1,-3.246746361E-1
2.755703290E0,-1.449276656E-1,-4.039343297E-1,-3.307832778E-1
2.757822144E0,-1.437059343E-1,-4.002691507E-1,-3.356702030E-1
2.759940998E0,-1.449276656E-1,-3.941605091E-1,-3.417788446E-1
2.762059852E0,-1.412624866E-1,-3.782780170E-1,-3.503309488E-1
2.764178654E0,-1.339320987E-1,-3.513999581E-1,-3.601047993E-1
2.766297508E0,-1.204930767E-1,-3.184132576E-1,-3.698786199E-1
2.768416362E0,-1.046105921E-1,-2.793179154E-1,-3.796524704E-1
2.770535217E0,-9.117157012E-2,-2.475529462E-1,-3.930914998E-1
2.772654071E0,-7.895427197E-2,-2.206749022E-1,-4.016436040E-1
2.774772925E0,-6.918043643E-2,-1.974620372E-1,-4.101957083E-1
2.776891727E0,-6.429351866E-2,-1.828012913E-1,-4.175260663E-1
2.779010581E0,-5.940660089E-2,-1.791360974E-1,-4.211912751E-1
2.781129435E0,-4.718930274E-2,-1.974620372E-1,-4.053087831E-1
2.783248290E0,-3.008509055E-2,-2.622137070E-1,-3.649916947E-1
2.785367092E0,-2.031125315E-2,-3.269653618E-1,-3.320049942E-1
2.787485946E0,-1.985310577E-3,-4.124864340E-1,-3.087921441E-1
2.789604800E0,1.634063199E-2,-5.090031028E-1,-3.063486814E-1
2.791723654E0,2.977965772E-2,-6.042979956E-1,-3.283398151E-1
2.793842508E0,3.344484791E-2,-6.922625303E-1,-3.662134409E-1
2.795961362E0,3.222311661E-2,-7.765618563E-1,-4.163043499E-1
2.798080165E0,2.367101051E-2,-8.547525406E-1,-4.651735425E-1
2.800199019E0,1.023198478E-2,-9.292780161E-1,-5.042688847E-1
2.802317873E0,2.901607659E-3,-1.006247044E0,-5.299251676E-1
2.804436727E0,-5.650499370E-3,-1.085659385E0,-5.396990180E-1
2.806555581E0,-1.053741761E-2,-1.165071845E0,-5.348120928E-1
2.808674383E0,-1.298087649E-2,-1.243262529E0,-5.189296007E-1
2.810793237E0,-1.542433538E-2,-1.317788005E0,-4.981602132E-1
2.812912092E0,-1.298087649E-2,-1.383761406E0,-4.761691093E-1
2.815030946E0,-1.175914705E-2,-1.441182733E0,-4.541779757E-1
2.817149800E0,-1.053741761E-2,-1.480278134E0,-4.358520210E-1
2.819268602E0,-1.175914705E-2,-1.507156134E0,-4.236347377E-1
2.821387456E0,-1.664606482E-2,-1.516929984E0,-4.199695289E-1
2.823506310E0,-2.275471389E-2,-1.512042999E0,-4.224129915E-1
2.825625165E0,-3.375028074E-2,-1.498604059E0,-4.297433794E-1
2.827744019E0,-4.718930274E-2,-1.480278134E0,-4.407389462E-1
2.829862821E0,-6.185005978E-2,-1.453400016E0,-4.529562294E-1
2.831981675E0,-8.017600328E-2,-1.421635032E0,-4.663952589E-1
2.834100529E0,-9.850194305E-2,-1.388648391E0,-4.786125422E-1
2.836219383E0,-1.143844277E-1,-1.356883407E0,-4.908298552E-1
2.838338237E0,-1.327103674E-1,-1.326340199E0,-4.993819594E-1
2.840457040E0,-1.547015011E-1,-1.290910006E0,-5.079340935E-1
2.842575894E0,-1.754709035E-1,-1.257923245E0,-5.152644515E-1
2.844694748E0,-1.937968582E-1,-1.222493172E0,-5.213730931E-1
2.846813602E0,-2.170097083E-1,-1.184619546E0,-5.262600183E-1
2.848932456E0,-2.377791107E-1,-1.144302487E0,-5.323686600E-1
2.851051258E0,-2.573267817E-1,-1.099098444E0,-5.348120928E-1
2.853170112E0,-2.732092738E-1,-1.052672744E0,-5.360338688E-1
2.855288967E0,-2.903134823E-1,-1.005025268E0,-5.348120928E-1
2.857407821E0,-3.049742281E-1,-9.549343586E-1,-5.311469436E-1
2.859526675E0,-3.171915412E-1,-8.999565244E-1,-5.287034512E-1
2.861645477E0,-3.294088244E-1,-8.449786901E-1,-5.250383019E-1
2.863764331E0,-3.379609287E-1,-7.912226319E-1,-5.225948095E-1
2.865883185E0,-3.465130329E-1,-7.301361561E-1,-5.164861679E-1
2.868002040E0,-3.477347791E-1,-6.629409790E-1,-5.091558099E-1
2.870120894E0,-3.489564955E-1,-5.871937871E-1,-5.006036758E-1
2.872239748E0,-3.440696001E-1,-5.114465356E-1,-4.920515716E-1
2.874358550E0,-3.404043913E-1,-4.308123887E-1,-4.847212136E-1
2.876477404E0,-3.330740333E-1,-3.538434207E-1,-4.798342884E-1
2.878596258E0,-3.257436454E-1,-2.829830945E-1,-4.798342884E-1
2.880715112E0,-3.171915412E-1,-2.182314396E-1,-4.834994674E-1
2.882833967E0,-3.098611534E-1,-1.608101577E-1,-4.883863926E-1
2.884952821E0,-3.037525117E-1,-1.119409725E-1,-4.957167804E-1
2.887071623E0,-2.988655865E-1,-6.795870513E-2,-5.030471683E-1
2.889190477E0,-2.939786613E-1,-2.641990222E-2,-5.115992427E-1
2.891309331E0,-2.878700197E-1,1.267544460E-2,-5.213730931E-1
2.893428185E0,-2.842048407E-1,5.054906011E-2,-5.335903764E-1
2.895546987E0,-2.805396616E-1,8.475748450E-2,-5.458076596E-1
2.897665842E0,-2.756527364E-1,1.165224537E-1,-5.592467189E-1
2.899784696E0,-2.707658112E-1,1.470656991E-1,-5.714640021E-1
2.901903550E0,-2.646571696E-1,1.690568328E-1,-5.836812854E-1
2.904022404E0,-2.634354234E-1,1.898262352E-1,-5.946768522E-1
2.906141206E0,-2.622137070E-1,2.069304436E-1,-6.056724191E-1
2.908260060E0,-2.573267817E-1,2.203694731E-1,-6.142245531E-1
2.910378915E0,-2.561050653E-1,2.301433086E-1,-6.203331947E-1
2.912497769E0,-2.561050653E-1,2.411388755E-1,-6.252201200E-1
2.914616623E0,-2.524398565E-1,2.496909797E-1,-6.288852692E-1
2.916735425E0,-2.475529462E-1,2.570213675E-1,-6.301070452E-1
2.918854279E0,-2.463312149E-1,2.643517256E-1,-6.325504780E-1
2.920973133E0,-2.463312149E-1,2.680169344E-1,-6.337721944E-1
2.923091987E0,-2.487746775E-1,2.704603672E-1,-6.349939108E-1
2.925210842E0,-2.536616027E-1,2.741255760E-1,-6.349939108E-1
2.927329644E0,-2.597702444E-1,2.777907550E-1,-6.313287616E-1
2.929448498E0,-2.683223486E-1,2.851211429E-1,-6.252201200E-1
2.931567352E0,-2.768744528E-1,2.973384261E-1,-6.178897023E-1
2.933686206E0,-2.878700197E-1,3.095557392E-1,-6.056724191E-1
2.935805060E0,-2.976438701E-1,3.217730224E-1,-5.922334194E-1
2.937923862E0,-3.086394370E-1,3.339903057E-1,-5.751292109E-1
2.940042717E0,-3.171915412E-1,3.474293351E-1,-5.555815101E-1
2.942161571E0,-3.233001828E-1,3.608683646E-1,-5.311469436E-1
2.944280425E0,-3.269653618E-1,3.706422150E-1,-5.042688847E-1
2.946399279E0,-3.306305707E-1,3.804160357E-1,-4.749473631E-1
2.948518081E0,-3.269653618E-1,3.889681399E-1,-4.456258714E-1
2.950636935E0,-3.269653618E-1,3.950767815E-1,-4.138608873E-1
2.952755790E0,-3.220784664E-1,4.036289155E-1,-3.845393658E-1
2.954874644E0,-3.184132576E-1,4.109592736E-1,-3.539961278E-1
2.956993498E0,-3.171915412E-1,4.207331240E-1,-3.271180987E-1
2.959112352E0,-3.135263622E-1,4.268417656E-1,-3.014617562E-1
2.961231154E0,-3.110828996E-1,4.329504073E-1,-2.782489061E-1
2.963350008E0,-3.123046160E-1,4.390590489E-1,-2.574795187E-1
2.965468862E0,-3.110828996E-1,4.415025115E-1,-2.379318327E-1
2.967587717E0,-3.123046160E-1,4.439459741E-1,-2.232710719E-1
2.969706571E0,-3.147480786E-1,4.366155863E-1,-2.110537887E-1
2.971825373E0,-3.208567202E-1,4.158461988E-1,-2.061668634E-1
2.973944227E0,-3.294088244E-1,3.865246773E-1,-2.073885947E-1
2.976063081E0,-3.452913165E-1,3.486510813E-1,-2.134972364E-1
2.978181935E0,-3.611738086E-1,3.022253513E-1,-2.220493406E-1
2.980300790E0,-3.782780170E-1,2.557996213E-1,-2.330449075E-1
2.982419592E0,-3.978256881E-1,2.093739063E-1,-2.428187430E-1
2.984538446E0,-4.112647176E-1,1.702785641E-1,-2.501491308E-1
2.986657300E0,-4.222602844E-1,1.446222365E-1,-2.525925934E-1
2.988776154E0,-4.259254634E-1,1.324049383E-1,-2.538143098E-1
2.990895008E0,-4.247037470E-1,1.299614757E-1,-2.538143098E-1
2.993013862E0,-4.222602844E-1,1.348484010E-1,-2.525925934E-1
2.995132665E0,-4.137081802E-1,1.495091617E-1,-2.513708472E-1
2.997251519E0,-4.051560760E-1,1.666133702E-1,-2.501491308E-1
2.999370373E0,-3.953822255E-1,1.837175786E-1,-2.489273995E-1
3.001489227E0,-3.880518377E-1,1.971566081E-1,-2.477056682E-1
3.003608081E0,-3.807214797E-1,2.105956376E-1,-2.477056682E-1
3.005726883E0,-3.746128380E-1,2.154825479E-1,-2.489273995E-1
3.007845737E0,-3.721693754E-1,2.167042792E-1,-2.501491308E-1
3.009964592E0,-3.709476292E-1,2.142608166E-1,-2.489273995E-1
3.012083446E0,-3.709476292E-1,2.057087123E-1,-2.525925934E-1
3.014202300E0,-3.697259128E-1,1.971566081E-1,-2.538143098E-1
3.016321102E0,-3.672824502E-1,1.873827726E-1,-2.525925934E-1
3.018439956E0,-3.660607338E-1,1.751654744E-1,-2.513708472E-1
3.020558810E0,-3.636172712E-1,1.666133702E-1,-2.501491308E-1
3.022677665E0,-3.587303460E-1,1.592829973E-1,-2.440404743E-1
3.024796519E0,-3.526217043E-1,1.543960720E-1,-2.379318327E-1
3.026915321E0,-3.452913165E-1,1.507308781E-1,-2.306014597E-1
3.029034175E0,-3.379609287E-1,1.470656991E-1,-2.220493406E-1
3.031153029E0,-3.318522871E-1,1.434005052E-1,-2.183841616E-1
3.033271831E0,-3.233001828E-1,1.385135949E-1,-2.134972364E-1
3.035390737E0,-3.171915412E-1,1.336266696E-1,-2.110537887E-1
3.037509592E0,-3.110828996E-1,1.275180280E-1,-2.073885947E-1
3.039628394E0,-3.086394370E-1,1.214093715E-1,-2.037234008E-1
3.041747248E0,-3.013090491E-1,1.165224537E-1,-2.000582218E-1
3.043866102E0,-2.939786613E-1,1.104138121E-1,-1.951712966E-1
3.045984956E0,-2.854265571E-1,1.043051630E-1,-1.915061027E-1
3.048103810E0,-2.768744528E-1,1.006399691E-1,-1.853974611E-1
3.050222612E0,-2.707658112E-1,9.208786488E-2,-1.805105358E-1
3.052341467E0,-2.634354234E-1,8.720094711E-2,-1.756236255E-1
3.054460321E0,-2.536616027E-1,8.353576064E-2,-1.695149690E-1
3.056579175E0,-2.451094985E-1,7.987056673E-2,-1.621845961E-1
3.058698029E0,-2.328922004E-1,7.620538026E-2,-1.536324918E-1
3.060816831E0,-2.194531709E-1,7.376192510E-2,-1.438586563E-1
3.062935685E0,-2.060141414E-1,7.254019380E-2,-1.353065521E-1
3.065054540E0,-1.913533956E-1,7.009673119E-2,-1.255327165E-1
3.067173394E0,-1.766926348E-1,6.765327603E-2,-1.133154184E-1
3.069292196E0,-1.620318890E-1,6.276635826E-2,-1.023198515E-1
3.071411050E0,-1.461493969E-1,5.910116807E-2,-9.132428467E-2
3.073529904E0,-1.339320987E-1,5.665770918E-2,-8.032871783E-2
3.075648758E0,-1.156061590E-1,5.299251899E-2,-6.811141968E-2
3.077767612E0,-1.021671370E-1,5.177079141E-2,-5.589412898E-2
3.079886467E0,-8.506292105E-2,5.177079141E-2,-4.367683083E-2
3.082005269E0,-7.040216774E-2,4.688387364E-2,-3.390299529E-2
3.084124123E0,-5.574141070E-2,4.444041103E-2,-2.290742844E-2
3.086242977E0,-3.985892609E-2,3.711003438E-2,-1.557705179E-2
3.088361831E0,-2.641990222E-2,3.222311661E-2,-9.468403645E-3
3.090480685E0,-1.175914705E-2,2.489273995E-2,-3.359756200E-3
3.092599487E0,2.901607659E-3,1.634063199E-2,3.054323897E-4
3.094718342E0,1.634063199E-2,7.788525894E-3,3.970621154E-3
3.096837196E0,2.733619884E-2,-1.985310577E-3,7.635809947E-3
3.098956050E0,3.711003438E-2,-1.542433538E-2,7.635809947E-3
3.101074852E0,5.054906011E-2,-2.764163166E-2,8.857538924E-3
3.103193758E0,5.665770918E-2,-4.474584386E-2,1.007926930E-2
3.105312560E0,6.276635826E-2,-6.307178736E-2,1.007926930E-2
3.107431415E0,6.643154472E-2,-8.384118974E-2,7.635809947E-3
3.109550269E0,6.887500733E-2,-1.070540547E-1,5.192350596E-3
3.111669123E0,6.887500733E-2,-1.302669197E-1,3.970621154E-3
3.113787977E0,6.887500733E-2,-1.510363221E-1,3.054323897E-4
3.115906831E0,7.009673119E-2,-1.705839932E-1,3.054323897E-4
3.118025633E0,6.643154472E-2,-1.901316643E-1,-9.162971983E-4
3.120144487E0,6.398808211E-2,-2.047924101E-1,-3.359756200E-3
3.122263342E0,6.032289565E-2,-2.194531709E-1,-3.359756200E-3
3.124382196E0,5.665770918E-2,-2.292270064E-1,-4.581485875E-3
3.126501050E0,5.299251899E-2,-2.426660359E-1,-5.803215317E-3
3.128619852E0,4.810560122E-2,-2.524398565E-1,-5.803215317E-3
3.130738706E0,4.199695215E-2,-2.585485280E-1,-7.024944760E-3
3.132857560E0,3.588830680E-2,-2.609919906E-1,-7.024944760E-3
3.134976415E0,3.100138716E-2,-2.609919906E-1,-7.024944760E-3
3.137095217E0,2.611446939E-2,-2.597702444E-1,-4.581485875E-3
3.139214071E0,1.878409274E-2,-2.561050653E-1,-2.138026757E-3
3.141332925E0,1.267544460E-2,-2.499964088E-1,-9.162971983E-4
3.143451779E0,7.788525894E-3,-2.426660359E-1,2.748891478E-3
3.145570633E0,2.901607659E-3,-2.316704690E-1,5.192350596E-3
3.147689487E0,-4.428769462E-3,-2.206749022E-1,6.414080039E-3
3.149808290E0,-9.315688163E-3,-2.109010667E-1,8.857538924E-3
3.151927144E0,-1.786779426E-2,-1.986837685E-1,1.130099874E-2
3.154045998E0,-2.641990222E-2,-1.876882017E-1,1.130099874E-2
3.156164904E0,-3.863719851E-2,-1.766926348E-1,1.252272818E-2
3.158283706E0,-5.085449293E-2,-1.632536054E-1,1.496618707E-2
3.160402560E0,-6.062832847E-2,-1.522580534E-1,1.618791744E-2
3.162521362E0,-7.162389904E-2,-1.400407553E-1,1.740964688E-2
3.164640217E0,-8.384118974E-2,-1.266017258E-1,1.985310577E-2
3.166759071E0,-9.361502528E-2,-1.143844277E-1,2.107483521E-2
3.168877925E0,-1.046105921E-1,-1.009454057E-1,2.229656465E-2
3.170996779E0,-1.131627038E-1,-8.872810751E-2,2.351829410E-2
3.173115581E0,-1.266017258E-1,-7.406735420E-2,2.351829410E-2
3.175234435E0,-1.363755614E-1,-6.062832847E-2,2.351829410E-2
3.177353290E0,-1.461493969E-1,-4.841103405E-2,2.229656465E-2
3.179472144E0,-1.559232324E-1,-3.619373962E-2,1.985310577E-2
3.181590946E0,-1.681405306E-1,-2.641990222E-2,1.496618707E-2
3.183709800E0,-1.791360974E-1,-1.664606482E-2,1.252272818E-2
3.185828654E0,-1.889099330E-1,-6.872228812E-3,1.007926930E-2
3.187947508E0,-1.950185746E-1,4.123337101E-3,6.414080039E-3
3.190066362E0,-2.060141414E-1,1.389717404E-2,5.192350596E-3
3.192185217E0,-2.145662606E-1,2.489273995E-2,3.970621154E-3
3.194304019E0,-2.243400961E-1,3.588830680E-2,2.748891478E-3
3.196422873E0,-2.292270064E-1,4.321868345E-2,2.748891478E-3
3.198541727E0,-2.341139317E-1,5.054906011E-2,-9.162971983E-4
3.200660581E0,-2.402225733E-1,6.032289565E-2,-9.162971983E-4
3.202779435E0,-2.451094985E-1,6.765327603E-2,-3.359756200E-3
3.204898237E0,-2.475529462E-1,7.254019380E-2,-4.581485875E-3
3.207017092E0,-2.512181401E-1,7.864884287E-2,-5.803215317E-3
3.209135946E0,-2.499964088E-1,8.353576064E-2,-7.024944760E-3
3.211254800E0,-2.499964088E-1,8.842267841E-2,-1.069013402E-2
3.213373654E0,-2.487746775E-1,9.330959618E-2,-1.679878123E-2
3.215492508E0,-2.475529462E-1,9.330959618E-2,-1.802051067E-2
3.217611310E0,-2.426660359E-1,9.575305134E-2,-1.679878123E-2
3.219730165E0,-2.365573794E-1,1.018617004E-1,-1.435532235E-2
3.221849019E0,-2.304487377E-1,1.091920808E-1,-1.069013402E-2
3.223967873E0,-2.218966335E-1,1.153007299E-1,-7.024944760E-3
3.226086727E0,-2.133445293E-1,1.238528341E-1,-2.138026757E-3
3.228205529E0,-2.035706937E-1,1.275180280E-1,-9.162971983E-4
3.230324383E0,-1.925751269E-1,1.287397593E-1,2.748891478E-3
3.232443237E0,-1.815795600E-1,1.299614757E-1,2.748891478E-3
3.234562092E0,-1.705839932E-1,1.250745654E-1,2.748891478E-3
3.236680894E0,-1.632536054E-1,1.201876476E-1,1.527161920E-3
3.238799748E0,-1.534797698E-1,1.128572673E-1,1.527161920E-3
3.240918602E0,-1.437059343E-1,1.043051630E-1,-9.162971983E-4
3.243037456E0,-1.351538301E-1,9.575305134E-2,-9.162971983E-4
3.245156310E0,-1.253799945E-1,8.475748450E-2,-4.581485875E-3
3.247275165E0,-1.156061590E-1,7.498364896E-2,-5.803215317E-3
3.249394019E0,-1.058323234E-1,6.520981342E-2,-5.803215317E-3
3.251512821E0,-9.728021920E-2,5.421425030E-2,-4.581485875E-3
3.253631675E0,-8.506292105E-2,4.566214234E-2,-4.581485875E-3
3.255750529E0,-7.651081681E-2,3.711003438E-2,-3.359756200E-3
3.257869383E0,-6.551524997E-2,2.733619884E-2,-2.138026757E-3
3.259988237E0,-5.574141070E-2,1.756236330E-2,-4.581485875E-3
3.262107040E0,-4.596757516E-2,1.145371422E-2,-2.138026757E-3
3.264225894E0,-3.863719851E-2,1.679878100E-3,-3.359756200E-3
3.266344748E0,-2.886336111E-2,-5.650499370E-3,-3.359756200E-3
3.268463602E0,-2.275471389E-2,-1.420260593E-2,-4.581485875E-3
3.270582456E0,-1.298087649E-2,-2.153298259E-2,-5.803215317E-3
3.272701258E0,-5.650499370E-3,-3.008509055E-2,-5.803215317E-3
3.274820112E0,4.581485991E-4,-3.741546720E-2,-8.246674202E-3
3.276938967E0,7.788525894E-3,-4.352411628E-2,-9.468403645E-3
3.279057821E0,1.267544460E-2,-4.718930274E-2,-9.468403645E-3
3.281176675E0,1.634063199E-2,-5.207622424E-2,-9.468403645E-3
3.283295477E0,2.489273995E-2,-5.696314201E-2,-9.468403645E-3
3.285414331E0,2.733619884E-2,-6.307178736E-2,-7.024944760E-3
3.287533185E0,2.977965772E-2,-6.673697382E-2,-3.359756200E-3
3.289652040E0,3.466657549E-2,-6.795870513E-2,-9.162971983E-4
3.291770894E0,3.833176568E-2,-7.040216774E-2,1.527161920E-3
3.293889748E0,4.199695215E-2,-7.040216774E-2,5.192350596E-3
3.296008550E0,4.444041103E-2,-6.673697382E-2,6.414080039E-3
3.298127404E0,4.810560122E-2,-6.673697382E-2,8.857538924E-3
3.300246258E0,5.054906011E-2,-6.551524997E-2,1.130099874E-2
3.302365112E0,5.421425030E-2,-6.062832847E-2,1.496618707E-2
3.304483967E0,5.665770918E-2,-5.940660089E-2,1.618791744E-2
3.306602769E0,5.787943676E-2,-5.818486959E-2,1.863137633E-2
3.308721623E0,6.154462695E-2,-5.574141070E-2,2.107483521E-2
3.310840477E0,6.276635826E-2,-5.451968312E-2,2.229656465E-2
3.312959331E0,6.276635826E-2,-5.207622424E-2,2.474002354E-2
3.315078185E0,6.276635826E-2,-4.841103405E-2,2.718348242E-2
3.317196987E0,6.520981342E-2,-4.474584386E-2,2.840521187E-2
3.319315842E0,6.398808211E-2,-4.230238497E-2,3.207040206E-2
3.321434696E0,6.398808211E-2,-3.741546720E-2,3.329212964E-2
3.323553550E0,6.520981342E-2,-3.252854943E-2,3.329212964E-2
3.325672404E0,6.398808211E-2,-2.641990222E-2,3.573558852E-2
3.327791258E0,6.276635826E-2,-2.275471389E-2,3.695731983E-2
3.329910060E0,6.276635826E-2,-1.908952370E-2,3.940077871E-2
3.332028915E0,6.154462695E-2,-1.664606482E-2,4.062250629E-2
3.334147769E0,6.154462695E-2,-9.315688163E-3,4.428769648E-2
3.336266623E0,5.910116807E-2,-9.315688163E-3,4.550942779E-2
3.338385477E0,5.910116807E-2,-5.650499370E-3,4.673115537E-2
3.340504279E0,5.910116807E-2,4.581485991E-4,4.673115537E-2
3.342623133E0,5.787943676E-2,4.123337101E-3,4.673115537E-2
3.344741987E0,5.543597788E-2,7.788525894E-3,4.550942779E-2
3.346860842E0,5.421425030E-2,1.267544460E-2,4.550942779E-2
3.348979696E0,5.177079141E-2,2.122755162E-2,4.306596518E-2
3.351098550E0,5.054906011E-2,2.855792828E-2,4.062250629E-2
3.353217352E0,5.054906011E-2,3.588830680E-2,3.817904741E-2
3.355336206E0,4.810560122E-2,4.444041103E-2,3.329212964E-2
3.357455060E0,5.054906011E-2,5.177079141E-2,3.084867075E-2
3.359573915E0,5.177079141E-2,5.910116807E-2,2.718348242E-2
3.361692717E0,5.177079141E-2,6.765327603E-2,2.596175298E-2
3.363811571E0,5.543597788E-2,7.254019380E-2,2.351829410E-2
3.365930425E0,5.910116807E-2,7.987056673E-2,2.351829410E-2
3.368049279E0,6.154462695E-2,8.475748450E-2,2.107483521E-2
3.370168133E0,6.765327603E-2,9.208786488E-2,1.863137633E-2
3.372286987E0,7.131846249E-2,9.697478265E-2,1.740964688E-2
3.374405842E0,7.498364896E-2,1.043051630E-1,1.496618707E-2
3.376524644E0,7.987056673E-2,1.091920808E-1,1.252272818E-2
3.378643498E0,8.475748450E-2,1.153007299E-1,8.857538924E-3
3.380762352E0,8.842267841E-2,1.201876476E-1,6.414080039E-3
3.382881206E0,9.086613357E-2,1.226311028E-1,1.527161920E-3
3.385000060E0,9.575305134E-2,1.238528341E-1,-3.359756200E-3
3.387118862E0,9.819651395E-2,1.299614757E-1,-9.468403645E-3
3.389237717E0,9.697478265E-2,1.336266696E-1,-1.435532235E-2
3.391356571E0,9.819651395E-2,1.360701323E-1,-2.046396956E-2
3.393475425E0,1.006399691E-1,1.421787739E-1,-2.535088919E-2
3.395594279E0,9.941824526E-2,1.458439678E-1,-3.023780696E-2
3.397713081E0,9.575305134E-2,1.507308781E-1,-3.512472659E-2
3.399831935E0,9.575305134E-2,1.531743407E-1,-3.878991306E-2
3.401950790E0,9.330959618E-2,1.580612659E-1,-4.123337194E-2
3.404069644E0,8.964440972E-2,1.617264450E-1,-4.489856213E-2
3.406188498E0,8.720094711E-2,1.641699076E-1,-4.612028971E-2
3.408307300E0,8.597921580E-2,1.678351015E-1,-4.856374860E-2
3.410426154E0,8.231402934E-2,1.690568328E-1,-5.100720748E-2
3.412545008E0,8.231402934E-2,1.739437431E-1,-5.100720748E-2
3.414663862E0,8.109229803E-2,1.763872057E-1,-5.100720748E-2
3.416782717E0,7.987056673E-2,1.776089370E-1,-5.222893879E-2
3.418901571E0,7.864884287E-2,1.812741160E-1,-5.222893879E-2
3.421020373E0,7.742711157E-2,1.837175786E-1,-5.345066637E-2
3.423139227E0,7.498364896E-2,1.837175786E-1,-5.589412898E-2
3.425258081E0,7.376192510E-2,1.849393100E-1,-5.589412898E-2
3.427376935E0,7.376192510E-2,1.837175786E-1,-5.711585656E-2
3.429495790E0,7.376192510E-2,1.837175786E-1,-5.955931544E-2
3.431614644E0,7.498364896E-2,1.861610413E-1,-5.955931544E-2
3.433733446E0,7.498364896E-2,1.861610413E-1,-6.078104675E-2
3.435852300E0,7.620538026E-2,1.849393100E-1,-6.200277433E-2
3.437971154E0,7.620538026E-2,1.873827726E-1,-6.322450191E-2
3.440090008E0,7.742711157E-2,1.886045039E-1,-6.566796452E-2
3.442208862E0,7.742711157E-2,1.861610413E-1,-6.688969582E-2
3.444327665E0,7.987056673E-2,1.873827726E-1,-6.688969582E-2
3.446446519E0,8.353576064E-2,1.886045039E-1,-7.055488229E-2
3.448565373E0,8.353576064E-2,1.886045039E-1,-7.422006875E-2
3.450684227E0,8.475748450E-2,1.898262352E-1,-7.666353136E-2
3.452803081E0,8.597921580E-2,1.910479665E-1,-7.910698652E-2
3.454921883E0,8.475748450E-2,1.922696829E-1,-8.277218044E-2
3.457040737E0,8.475748450E-2,1.922696829E-1,-8.521563560E-2
3.459159592E0,8.475748450E-2,1.922696829E-1,-8.765909821E-2
3.461278446E0,8.842267841E-2,1.934914142E-1,-8.765909821E-2
3.463397300E0,8.597921580E-2,1.922696829E-1,-9.010255337E-2
3.465516102E0,8.842267841E-2,1.959348768E-1,-9.010255337E-2
3.467634956E0,8.597921580E-2,1.959348768E-1,-9.010255337E-2
3.469753810E0,8.842267841E-2,1.934914142E-1,-8.765909821E-2
3.471872665E0,9.697478265E-2,1.556178033E-1,-6.811141968E-2
3.473991519E0,1.030834317E-1,9.330959618E-2,-4.489856213E-2
3.476110321E0,1.067486182E-1,4.932733253E-2,-4.245510325E-2
3.478229175E0,1.006399691E-1,2.733619884E-2,-5.833758786E-2
3.480348029E0,8.720094711E-2,3.222311661E-2,-9.132428467E-2
3.482466883E0,7.009673119E-2,5.665770918E-2,-1.328630894E-1
3.484585737E0,5.177079141E-2,9.330959618E-2,-1.707367003E-1
3.486704592E0,3.711003438E-2,1.238528341E-1,-1.976147592E-1
3.488823394E0,2.611446939E-2,1.372918636E-1,-2.049451321E-1
3.490942248E0,1.878409274E-2,1.275180280E-1,-1.939495653E-1
3.493061102E0,1.511890348E-2,1.030834317E-1,-1.731801629E-1
3.495179956E0,5.345067009E-3,6.887500733E-2,-1.487455666E-1
3.497298810E0,-1.985310577E-3,2.977965772E-2,-1.218675226E-1
3.499417612E0,-1.542433538E-2,-8.093958721E-3,-9.865466505E-2
3.501536467E0,-2.641990222E-2,-3.985892609E-2,-8.155044913E-2
3.503655321E0,-4.108065739E-2,-6.185005978E-2,-6.811141968E-2
3.505774175E0,-5.696314201E-2,-7.040216774E-2,-6.078104675E-2
3.507893029E0,-7.162389904E-2,-7.162389904E-2,-5.833758786E-2
3.510011883E0,-8.628465235E-2,-6.551524997E-2,-5.955931544E-2
3.512130685E0,-9.972367436E-2,-5.329795182E-2,-6.200277433E-2
3.514249540E0,-1.107192412E-1,-3.863719851E-2,-6.566796452E-2
3.516368394E0,-1.217148080E-1,-1.908952370E-2,-6.933315098E-2
3.518487248E0,-1.302669197E-1,-3.207040019E-3,-7.055488229E-2
3.520606102E0,-1.388190240E-1,1.145371422E-2,-6.811141968E-2
3.522724956E0,-1.449276656E-1,2.489273995E-2,-6.566796452E-2
3.524843758E0,-1.510363221E-1,3.588830680E-2,-5.833758786E-2
3.526962612E0,-1.534797698E-1,4.688387364E-2,-4.734202102E-2
3.529081467E0,-1.571449637E-1,5.299251899E-2,-3.878991306E-2
3.531200321E0,-1.571449637E-1,5.787943676E-2,-3.023780696E-2
3.533319123E0,-1.571449637E-1,6.154462695E-2,-2.168569900E-2
3.535437977E0,-1.595884264E-1,5.910116807E-2,-1.557705179E-2
3.537556831E0,-1.595884264E-1,5.543597788E-2,-1.191186346E-2
3.539675685E0,-1.583666950E-1,5.054906011E-2,-7.024944760E-3
3.541794540E0,-1.559232324E-1,4.077522457E-2,-4.581485875E-3
3.543913394E0,-1.547015011E-1,2.855792828E-2,-2.138026757E-3
3.546032248E0,-1.510363221E-1,1.389717404E-2,-9.162971983E-4
3.548151050E0,-1.485928595E-1,-1.985310577E-3,-9.162971983E-4
3.550269904E0,-1.437059343E-1,-1.664606482E-2,-2.138026757E-3
3.552388758E0,-1.375972927E-1,-3.375028074E-2,-2.138026757E-3
3.554507612E0,-1.339320987E-1,-4.718930274E-2,-3.359756200E-3
3.556626415E0,-1.278234571E-1,-6.673697382E-2,-3.359756200E-3
3.558745269E0,-1.204930767E-1,-8.384118974E-2,-4.581485875E-3
3.560864123E0,-1.143844277E-1,-1.046105921E-1,-4.581485875E-3
3.562982977E0,-1.033888608E-1,-1.229365394E-1,-5.803215317E-3
3.565101831E0,-9.483675659E-2,-1.449276656E-1,-7.024944760E-3
3.567220633E0,-8.506292105E-2,-1.632536054E-1,-7.024944760E-3
3.569339487E0,-7.162389904E-2,-1.864664704E-1,-8.246674202E-3
3.571458342E0,-6.307178736E-2,-2.060141414E-1,-9.468403645E-3
3.573577196E0,-5.207622424E-2,-2.267835438E-1,-1.313359290E-2
3.575696050E0,-4.108065739E-2,-2.463312149E-1,-1.313359290E-2
3.577814904E0,-3.008509055E-2,-2.622137070E-1,-1.557705179E-2
3.579933706E0,-1.908952370E-2,-2.768744528E-1,-1.679878123E-2
3.582052560E0,-4.428769462E-3,-2.878700197E-1,-2.046396956E-2
3.584171415E0,4.123337101E-3,-2.964221239E-1,-2.168569900E-2
3.586290269E0,1.634063199E-2,-3.061959743E-1,-2.412915789E-2
3.588409123E0,2.733619884E-2,-3.135263622E-1,-2.412915789E-2
3.590527977E0,3.833176568E-2,-3.171915412E-1,-2.412915789E-2
3.592646779E0,4.932733253E-2,-3.208567202E-1,-2.412915789E-2
3.594765633E0,5.787943676E-2,-3.208567202E-1,-2.535088919E-2
3.596884487E0,6.887500733E-2,-3.184132576E-1,-2.412915789E-2
3.599003342E0,7.742711157E-2,-3.147480786E-1,-2.412915789E-2
3.601122196E0,8.475748450E-2,-3.110828996E-1,-2.290742844E-2
3.603240998E0,9.330959618E-2,-3.037525117E-1,-2.290742844E-2
3.605359852E0,9.941824526E-2,-2.976438701E-1,-2.168569900E-2
3.607478706E0,1.067486182E-1,-2.939786613E-1,-2.046396956E-2
3.609597560E0,1.104138121E-1,-2.939786613E-1,-1.924224012E-2
3.611716415E0,1.140789986E-1,-2.939786613E-1,-2.046396956E-2
3.613835217E0,1.165224537E-1,-3.000873327E-1,-1.924224012E-2
3.615954071E0,1.165224537E-1,-3.049742281E-1,-1.679878123E-2
3.618072925E0,1.177441850E-1,-3.061959743E-1,-1.435532235E-2
3.620191779E0,1.177441850E-1,-3.086394370E-1,-1.435532235E-2
3.622310633E0,1.165224537E-1,-3.074176908E-1,-1.069013402E-2
3.624429487E0,1.153007299E-1,-3.049742281E-1,-8.246674202E-3
3.626548290E0,1.128572673E-1,-3.061959743E-1,-3.359756200E-3
3.628667144E0,1.116355360E-1,-3.086394370E-1,3.970621154E-3
3.630785998E0,1.116355360E-1,-3.184132576E-1,8.857538924E-3
3.632904852E0,1.067486182E-1,-3.294088244E-1,1.252272818E-2
3.635023706E0,1.006399691E-1,-3.367392123E-1,1.618791744E-2
3.637142508E0,9.697478265E-2,-3.379609287E-1,1.985310577E-2
3.639261362E0,9.330959618E-2,-3.355174661E-1,1.985310577E-2
3.641380217E0,8.842267841E-2,-3.269653618E-1,2.107483521E-2
3.643499071E0,8.597921580E-2,-3.147480786E-1,2.474002354E-2
3.645617925E0,8.231402934E-2,-3.025307953E-1,2.718348242E-2
3.647736779E0,8.109229803E-2,-2.952004075E-1,3.207040206E-2
3.649855581E0,7.620538026E-2,-2.952004075E-1,3.451386094E-2
3.651974435E0,7.009673119E-2,-2.939786613E-1,3.329212964E-2
3.654093290E0,6.520981342E-2,-2.878700197E-1,2.962694131E-2
3.656212144E0,6.032289565E-2,-2.768744528E-1,2.351829410E-2
3.658330998E0,5.543597788E-2,-2.622137070E-1,1.985310577E-2
3.660449852E0,5.299251899E-2,-2.463312149E-1,1.618791744E-2
3.662568654E0,4.932733253E-2,-2.328922004E-1,1.618791744E-2
3.664687508E0,4.688387364E-2,-2.218966335E-1,1.618791744E-2
3.666806362E0,4.321868345E-2,-2.218966335E-1,1.740964688E-2
3.668925217E0,4.199695215E-2,-2.255618125E-1,1.618791744E-2
3.671044019E0,3.955349326E-2,-2.280052751E-1,1.252272818E-2
3.673162873E0,3.466657549E-2,-2.206749022E-1,7.635809947E-3
3.675281727E0,3.466657549E-2,-2.072358727E-1,5.192350596E-3
3.677400581E0,3.222311661E-2,-1.925751269E-1,3.970621154E-3
3.679519435E0,3.222311661E-2,-1.766926348E-1,3.970621154E-3
3.681638290E0,3.222311661E-2,-1.656970680E-1,8.857538924E-3
3.683757092E0,2.977965772E-2,-1.571449637E-1,1.130099874E-2
3.685875946E0,2.733619884E-2,-1.534797698E-1,1.618791744E-2
3.687994800E0,2.367101051E-2,-1.522580534E-1,1.985310577E-2
3.690113654E0,2.000582218E-2,-1.522580534E-1,2.351829410E-2
3.692232508E0,1.634063199E-2,-1.644753367E-1,2.840521187E-2
3.694351362E0,1.023198478E-2,-1.828012913E-1,3.207040206E-2
3.696470165E0,1.679878100E-3,-1.999054998E-1,2.962694131E-2
3.698589019E0,-1.985310577E-3,-2.035706937E-1,2.474002354E-2
3.700707873E0,-8.093958721E-3,-1.999054998E-1,1.985310577E-2
3.702826727E0,-9.315688163E-3,-1.925751269E-1,1.740964688E-2
3.704945581E0,-1.298087649E-2,-1.889099330E-1,1.863137633E-2
3.707064383E0,-1.542433538E-2,-1.901316643E-1,2.474002354E-2
3.709183237E0,-1.542433538E-2,-1.950185746E-1,3.329212964E-2
3.711302092E0,-1.542433538E-2,-2.011272311E-1,4.306596518E-2
3.713420946E0,-1.786779426E-2,-2.096793354E-1,5.039634556E-2
3.715539800E0,-1.908952370E-2,-2.157879770E-1,5.772672221E-2
3.717658602E0,-2.153298259E-2,-2.280052751E-1,6.383536756E-2
3.719777456E0,-2.275471389E-2,-2.487746775E-1,7.116574794E-2
3.721896310E0,-2.397644334E-2,-2.622137070E-1,6.994401664E-2
3.724015165E0,-2.275471389E-2,-2.597702444E-1,6.505709887E-2
3.726134019E0,-2.153298259E-2,-2.377791107E-1,5.894844979E-2
3.728252873E0,-1.298087649E-2,-2.133445293E-1,5.528326333E-2
3.730371675E0,-1.053741761E-2,-1.791360974E-1,5.406153202E-2
3.732490529E0,-6.872228812E-3,-1.449276656E-1,5.283980444E-2
3.734609383E0,-5.650499370E-3,-1.180496216E-1,5.283980444E-2
3.736728237E0,-3.207040019E-3,-9.239330143E-2,5.161807314E-2
3.738847092E0,-5.650499370E-3,-7.162389904E-2,5.161807314E-2
3.740965894E0,-6.872228812E-3,-5.329795182E-2,4.795288667E-2
3.743084748E0,-1.053741761E-2,-3.741546720E-2,4.550942779E-2
3.745203602E0,-1.298087649E-2,-2.397644334E-2,4.428769648E-2
3.747322456E0,-1.664606482E-2,-1.298087649E-2,4.062250629E-2
3.749441310E0,-1.908952370E-2,-5.650499370E-3,3.817904741E-2
3.751560165E0,-2.397644334E-2,-7.635809598E-4,3.695731983E-2
3.753678967E0,-2.641990222E-2,-7.635809598E-4,3.695731983E-2
3.755797821E0,-3.252854943E-2,-3.207040019E-3,3.451386094E-2
3.757916675E0,-3.375028074E-2,-1.053741761E-2,3.573558852E-2
3.760035529E0,-3.985892609E-2,-2.275471389E-2,3.695731983E-2
3.762154383E0,-3.985892609E-2,-3.741546720E-2,4.062250629E-2
3.764273185E0,-4.108065739E-2,-5.451968312E-2,4.795288667E-2
3.766392040E0,-4.108065739E-2,-7.040216774E-2,5.406153202E-2
3.768510894E0,-3.863719851E-2,-8.872810751E-2,6.139190868E-2
3.770629748E0,-3.863719851E-2,-1.168278903E-1,6.750056148E-2
3.772748602E0,-3.619373962E-2,-1.437059343E-1,6.872228533E-2
3.774867456E0,-3.252854943E-2,-1.608101577E-1,6.505709887E-2
3.776986258E0,-2.764163166E-2,-1.669187993E-1,5.772672221E-2
3.779105112E0,-1.298087649E-2,-1.730274558E-1,4.917461425E-2
3.781223967E0,9.010255337E-3,-1.693622619E-1,4.428769648E-2
3.783342821E0,2.977965772E-2,-1.400407553E-1,3.940077871E-2
3.785461675E0,5.054906011E-2,-9.972367436E-2,3.695731983E-2
3.787580477E0,7.009673119E-2,-6.307178736E-2,3.573558852E-2
3.789699331E0,8.597921580E-2,-3.008509055E-2,3.084867075E-2
3.791818185E0,9.941824526E-2,-5.650499370E-3,2.718348242E-2
3.793937040E0,1.116355360E-1,1.023198478E-2,1.863137633E-2
3.796055894E0,1.214093715E-1,2.122755162E-2,1.252272818E-2
3.798174696E0,1.336266696E-1,2.977965772E-2,6.414080039E-3
3.800293550E0,1.458439678E-1,3.711003438E-2,1.527161920E-3
3.802412404E0,1.543960720E-1,3.833176568E-2,-2.138026757E-3
3.804531258E0,1.666133702E-1,4.077522457E-2,-4.581485875E-3
3.806650112E0,1.751654744E-1,4.077522457E-2,-5.803215317E-3
3.808768967E0,1.812741160E-1,3.711003438E-2,-8.246674202E-3
3.810887769E0,1.873827726E-1,3.588830680E-2,-7.024944760E-3
3.813006623E0,1.959348768E-1,3.344484791E-2,-5.803215317E-3
3.815125477E0,1.983783394E-1,3.344484791E-2,-4.581485875E-3
3.817244383E0,2.044869810E-1,3.588830680E-2,-4.581485875E-3
3.819363185E0,2.081521749E-1,4.199695215E-2,-2.138026757E-3
3.821482300E0,2.130390853E-1,5.054906011E-2,3.054323897E-4
3.823600842E0,2.179260105E-1,6.398808211E-2,-9.162971983E-4
3.825719696E0,2.228129357E-1,8.353576064E-2,-2.138026757E-3
3.827838550E0,2.228129357E-1,1.067486182E-1,-3.359756200E-3
3.829957404E0,2.252563834E-1,1.299614757E-1,-8.246674202E-3
3.832076258E0,2.264781147E-1,1.507308781E-1,-1.191186346E-2
3.834195112E0,2.228129357E-1,1.715002805E-1,-1.679878123E-2
3.836313915E0,2.203694731E-1,1.922696829E-1,-2.168569900E-2
3.838432769E0,2.179260105E-1,2.130390853E-1,-2.535088919E-2
3.840551623E0,2.118173689E-1,2.313650399E-1,-3.023780696E-2
3.842670477E0,2.057087123E-1,2.509126961E-1,-3.390299529E-2
3.844789331E0,1.996000707E-1,2.704603672E-1,-3.756818548E-2
3.846908133E0,1.898262352E-1,2.900080681E-1,-4.123337194E-2
3.849026987E0,1.824958473E-1,3.083339930E-1,-4.489856213E-2
3.851145842E0,1.727220118E-1,3.254382014E-1,-4.612028971E-2
3.853264696E0,1.605047137E-1,3.388772309E-1,-4.978547990E-2
3.855383550E0,1.482874304E-1,3.498727977E-1,-4.856374860E-2
3.857502352E0,1.360701323E-1,3.572031856E-1,-4.612028971E-2
3.859621206E0,1.262962967E-1,3.669770062E-1,-4.367683083E-2
3.861740060E0,1.140789986E-1,3.730856776E-1,-4.123337194E-2
3.863858915E0,1.018617004E-1,3.791943192E-1,-3.878991306E-2
3.865977769E0,9.086613357E-2,3.840812445E-1,-3.512472659E-2
3.868096623E0,7.864884287E-2,3.926333487E-1,-3.145953640E-2
3.870215425E0,6.887500733E-2,4.060723484E-1,-2.901607752E-2
3.872334279E0,5.910116807E-2,4.219548404E-1,-2.779434808E-2
3.874453133E0,5.054906011E-2,4.366155863E-1,-2.535088919E-2
3.876571987E0,4.077522457E-2,4.524980783E-1,-2.535088919E-2
3.878690842E0,3.588830680E-2,4.683805704E-1,-2.535088919E-2
3.880809696E0,2.855792828E-2,4.830413163E-1,-2.535088919E-2
3.882928498E0,2.367101051E-2,5.001455545E-1,-2.535088919E-2
3.885047352E0,2.122755162E-2,5.148062706E-1,-2.657261863E-2
3.887166206E0,2.000582218E-2,5.282453299E-1,-2.779434808E-2
3.889285060E0,1.634063199E-2,5.416843295E-1,-3.145953640E-2
3.891403915E0,1.389717404E-2,5.514581800E-1,-3.268126398E-2
3.893522769E0,1.511890348E-2,5.612320304E-1,-3.634645417E-2
3.895641571E0,1.389717404E-2,5.685623884E-1,-4.001164436E-2
3.897760425E0,1.511890348E-2,5.771145225E-1,-4.367683083E-2
3.899879279E0,1.756236330E-2,5.832231641E-1,-4.734202102E-2
3.901998133E0,1.634063199E-2,5.905535221E-1,-5.222893879E-2
3.904116935E0,1.267544460E-2,5.954404473E-1,-5.711585656E-2
3.906235790E0,1.267544460E-2,6.027708054E-1,-6.200277433E-2
3.908354644E0,1.023198478E-2,6.076577306E-1,-6.566796452E-2
3.910473498E0,7.788525894E-3,6.149880886E-1,-7.055488229E-2
3.912592352E0,5.345067009E-3,6.235402226E-1,-7.422006875E-2
3.914711206E0,2.901607659E-3,6.320923567E-1,-7.544180006E-2
3.916830060E0,-7.635809598E-4,6.406444311E-1,-7.666353136E-2
3.918948862E0,-5.650499370E-3,6.516399980E-1,-7.788526267E-2
3.921067717E0,-1.053741761E-2,6.614138484E-1,-7.544180006E-2
3.923186571E0,-1.664606482E-2,6.675224900E-1,-7.422006875E-2
3.925305425E0,-2.275471389E-2,6.687442064E-1,-7.299833745E-2
3.927424279E0,-2.886336111E-2,6.614138484E-1,-7.177661359E-2
3.929543081E0,-3.619373962E-2,6.491965652E-1,-6.933315098E-2
3.931661935E0,-3.863719851E-2,6.296488643E-1,-6.322450191E-2
3.933780790E0,-4.352411628E-2,6.076577306E-1,-5.711585656E-2
3.935899644E0,-4.108065739E-2,5.844448805E-1,-4.978547990E-2
3.938018498E0,-3.863719851E-2,5.624537468E-1,-4.123337194E-2
3.940137352E0,-3.497200832E-2,5.404626131E-1,-3.390299529E-2
3.942256154E0,-3.130681813E-2,5.221366882E-1,-2.779434808E-2
3.944375008E0,-2.397644334E-2,5.074759126E-1,-2.168569900E-2
3.946493862E0,-1.542433538E-2,4.964803457E-1,-1.679878123E-2
3.948612717E0,-9.315688163E-3,4.854847789E-1,-1.069013402E-2
3.950731571E0,1.679878100E-3,4.769326746E-1,-4.581485875E-3
3.952850373E0,9.010255337E-3,4.708240330E-1,-9.162971983E-4
3.954969227E0,1.878409274E-2,4.647153914E-1,3.970621154E-3
3.957088081E0,2.855792828E-2,4.622719288E-1,1.007926930E-2
3.959206935E0,3.833176568E-2,4.659371078E-1,1.374445762E-2
3.961325790E0,4.566214234E-2,4.708240330E-1,1.740964688E-2
3.963444644E0,5.543597788E-2,4.793761373E-1,2.107483521E-2
3.965563446E0,6.276635826E-2,4.854847789E-1,2.229656465E-2
3.967682300E0,6.887500733E-2,4.952586293E-1,2.596175298E-2
3.969801154E0,7.620538026E-2,5.025889874E-1,2.840521187E-2
3.971920008E0,8.109229803E-2,5.074759126E-1,2.840521187E-2
3.974038862E0,8.475748450E-2,5.074759126E-1,2.840521187E-2
3.976157717E0,9.086613357E-2,5.050324798E-1,2.962694131E-2
3.978276519E0,9.453132749E-2,5.001455545E-1,2.962694131E-2
3.980395373E0,9.819651395E-2,4.915934205E-1,2.840521187E-2
3.982514227E0,1.018617004E-1,4.769326746E-1,2.962694131E-2
3.984633081E0,1.043051630E-1,4.647153914E-1,3.084867075E-2
3.986751935E0,1.091920808E-1,4.524980783E-1,3.207040206E-2
3.988870737E0,1.140789986E-1,4.402807951E-1,3.329212964E-2
3.990989592E0,1.128572673E-1,4.292852283E-1,3.573558852E-2
3.993108446E0,1.177441850E-1,4.182896614E-1,3.695731983E-2
3.995227300E0,1.201876476E-1,4.121810198E-1,3.695731983E-2
3.997346154E0,1.189659163E-1,4.072940946E-1,3.817904741E-2
3.999464956E0,1.201876476E-1,3.975202441E-1,3.695731983E-2
4.001583810E0,1.214093715E-1,3.865246773E-1,3.695731983E-2
4.003702665E0,1.214093715E-1,3.743073940E-1,3.695731983E-2
4.005821519E0,1.189659163E-1,3.608683646E-1,3.817904741E-2
4.007940373E0,1.201876476E-1,3.498727977E-1,3.940077871E-2
4.010059227E0,1.177441850E-1,3.425424397E-1,4.062250629E-2
4.012178081E0,1.189659163E-1,3.339903057E-1,3.940077871E-2
4.014296883E0,1.214093715E-1,3.315468729E-1,4.062250629E-2
4.016415737E0,1.238528341E-1,3.291034102E-1,4.062250629E-2
4.018534592E0,1.250745654E-1,3.291034102E-1,4.184423760E-2
4.020653446E0,1.262962967E-1,3.315468729E-1,4.184423760E-2
4.022772248E0,1.275180280E-1,3.339903057E-1,4.184423760E-2
4.024891102E0,1.287397593E-1,3.400989771E-1,4.184423760E-2
4.027009956E0,1.324049383E-1,3.498727977E-1,4.306596518E-2
4.029128810E0,1.348484010E-1,3.596466482E-1,4.428769648E-2
4.031247665E0,1.385135949E-1,3.718639314E-1,4.306596518E-2
4.033366519E0,1.385135949E-1,3.877464235E-1,4.306596518E-2
4.035485321E0,1.421787739E-1,4.048506320E-1,4.306596518E-2
4.037604175E0,1.458439678E-1,4.182896614E-1,4.184423760E-2
4.039723029E0,1.470656991E-1,4.341721535E-1,3.940077871E-2
4.041841883E0,1.458439678E-1,4.488328993E-1,3.695731983E-2
4.043960737E0,1.470656991E-1,4.586067200E-1,3.695731983E-2
4.046079592E0,1.458439678E-1,4.659371078E-1,3.695731983E-2
4.048198394E0,1.470656991E-1,4.683805704E-1,3.451386094E-2
4.050317248E0,1.409570426E-1,4.671588540E-1,3.817904741E-2
4.052436102E0,1.397353113E-1,4.671588540E-1,3.817904741E-2
4.054554956E0,1.372918636E-1,4.671588540E-1,3.817904741E-2
4.056673810E0,1.336266696E-1,4.634936452E-1,3.695731983E-2
4.058792665E0,1.311832070E-1,4.598284662E-1,3.817904741E-2
4.060911467E0,1.287397593E-1,4.537198246E-1,3.695731983E-2
4.063030321E0,1.275180280E-1,4.451677203E-1,3.695731983E-2
4.065149175E0,1.238528341E-1,4.231765866E-1,3.695731983E-2
4.067268029E0,1.250745654E-1,3.962985277E-1,3.329212964E-2
4.069386883E0,1.275180280E-1,3.853029609E-1,2.962694131E-2
4.071505685E0,1.311832070E-1,3.865246773E-1,2.596175298E-2
4.073624540E0,1.385135949E-1,3.938550651E-1,2.351829410E-2
4.075743394E0,1.470656991E-1,4.011854529E-1,2.107483521E-2
4.077862248E0,1.531743407E-1,4.024071693E-1,1.740964688E-2
4.079981102E0,1.641699076E-1,3.999637067E-1,1.130099874E-2
4.082099904E0,1.763872057E-1,3.999637067E-1,3.970621154E-3
4.084218810E0,1.873827726E-1,3.914116025E-1,-3.359756200E-3
4.086337612E0,2.020435184E-1,3.816377819E-1,-1.191186346E-2
4.088456467E0,2.130390853E-1,3.694204688E-1,-2.046396956E-2
4.090575321E0,2.313650399E-1,3.572031856E-1,-2.901607752E-2
4.092694175E0,2.448040545E-1,3.510945439E-1,-2.168569900E-2
4.094813029E0,2.606865466E-1,3.474293351E-1,-1.679878123E-2
4.096931831E0,2.716821134E-1,3.413206935E-1,-2.168569900E-2
4.099050685E0,2.826776803E-1,3.327685893E-1,-2.901607752E-2
4.101169540E0,2.985601723E-1,3.205513060E-1,-3.634645417E-2
4.103288394E0,3.132209182E-1,3.034470677E-1,-4.734202102E-2
4.105407248E0,3.278816640E-1,2.814559340E-1,-6.078104675E-2
4.107526050E0,3.437641561E-1,2.582430840E-1,-7.422006875E-2
4.109644904E0,3.657552898E-1,2.325867712E-1,-8.765909821E-2
4.111763758E0,3.828594983E-1,2.044869810E-1,-9.987638891E-2
4.113882612E0,4.048506320E-1,1.776089370E-1,-1.096502244E-1
4.116001467E0,4.280634820E-1,1.495091617E-1,-1.169806048E-1
4.118120321E0,4.500546157E-1,1.238528341E-1,-1.194240674E-1
4.120239123E0,4.708240330E-1,1.018617004E-1,-1.157588735E-1
4.122357977E0,4.903717041E-1,8.231402934E-2,-1.108719558E-1
4.124476831E0,5.062541962E-1,5.421425030E-2,-1.084285006E-1
4.126595685E0,5.233584046E-1,3.344484791E-2,-1.084285006E-1
4.128714540E0,5.416843295E-1,1.145371422E-2,-1.072067693E-1
4.130833342E0,5.551233888E-1,-1.175914705E-2,-1.072067693E-1
4.132952196E0,5.710058808E-1,-3.375028074E-2,-1.059850380E-1
4.135071050E0,5.844448805E-1,-5.085449293E-2,-1.084285006E-1
4.137189904E0,5.929969549E-1,-6.185005978E-2,-1.145371497E-1
4.139308758E0,6.027708054E-1,-7.040216774E-2,-1.243109852E-1
4.141427612E0,6.137663722E-1,-7.284562290E-2,-1.340848207E-1
4.143546467E0,6.210967898E-1,-7.895427197E-2,-1.438586563E-1
4.145665269E0,6.284271479E-1,-8.261945844E-2,-1.548542231E-1
4.147784123E0,6.357575059E-1,-8.750637621E-2,-1.670715213E-1
4.149902977E0,6.443096399E-1,-9.483675659E-2,-1.780670881E-1
4.152021831E0,6.504182816E-1,-1.046105921E-1,-1.866191924E-1
4.154140633E0,6.577486396E-1,-1.156061590E-1,-1.939495653E-1
4.156259487E0,6.614138484E-1,-1.290451884E-1,-1.988364905E-1
4.158378342E0,6.663007736E-1,-1.461493969E-1,-1.988364905E-1
4.160497196E0,6.687442064E-1,-1.681405306E-1,-1.976147592E-1
4.162616050E0,6.699659228E-1,-1.876882017E-1,-1.915061027E-1
4.164734904E0,6.711876988E-1,-2.072358727E-1,-1.853974611E-1
4.166853758E0,6.699659228E-1,-2.218966335E-1,-1.731801629E-1
4.168972560E0,6.663007736E-1,-2.341139317E-1,-1.658497900E-1
4.171091415E0,6.626355648E-1,-2.426660359E-1,-1.560759544E-1
4.173210269E0,6.565269232E-1,-2.463312149E-1,-1.475238502E-1
4.175329123E0,6.528617144E-1,-2.573267817E-1,-1.401934624E-1
4.177447977E0,6.504182816E-1,-2.866483033E-1,-1.316413581E-1
4.179566779E0,6.382009983E-1,-3.513999581E-1,-1.267544478E-1
4.181685633E0,6.223185062E-1,-3.966039717E-1,-1.438586563E-1
4.183804487E0,6.113229394E-1,-3.904953003E-1,-1.682932526E-1
4.185923342E0,6.149880886E-1,-3.513999581E-1,-1.817322671E-1
4.188042196E0,6.272054315E-1,-3.220784664E-1,-1.878409237E-1
4.190160998E0,6.394227147E-1,-3.061959743E-1,-1.866191924E-1
4.192279852E0,6.479747891E-1,-3.025307953E-1,-1.853974611E-1
4.194398706E0,6.528617144E-1,-3.025307953E-1,-1.841757298E-1
4.196517560E0,6.589703560E-1,-2.988655865E-1,-1.878409237E-1
4.198636415E0,6.650790572E-1,-2.915352285E-1,-1.939495653E-1
