"Time (s)","Linear Acceleration x (m/s^2)","Linear Acceleration y (m/s^2)","Linear Acceleration z (m/s^2)"
3.329276900E-2,0.000000000E0,0.000000000E0,0.000000000E0
3.829276900E-2,-3.066349030E-2,1.181316376E-2,3.680658340E-2
4.329276900E-2,-6.471490860E-2,1.042509079E-2,8.123922348E-2
4.829276900E-2,-7.012701035E-2,8.492469788E-4,1.238861084E-1
5.329276900E-2,-7.142925262E-2,-2.594661713E-2,1.712975502E-1
5.829276900E-2,-6.041622162E-2,-4.806947708E-2,1.908702850E-1
6.329276900E-2,-4.284143448E-2,-5.406332016E-2,1.956586838E-1
6.829276900E-2,-2.226305008E-2,-6.404399872E-2,2.117466927E-1
7.329276900E-2,-2.520513535E-2,-4.685878754E-2,2.075848579E-1
7.829276900E-2,-2.658462524E-2,-4.328632355E-2,1.912117004E-1
8.329276900E-2,-4.102420807E-2,-4.571485519E-2,1.496958733E-1
8.829276900E-2,-5.080747604E-2,-4.296112061E-2,8.712148666E-2
9.329276900E-2,-8.804035187E-2,-5.454206467E-2,2.914571762E-2
9.829276900E-2,-1.344685555E-1,-6.538724899E-2,-2.266216278E-2
1.032927690E-1,-1.789529324E-1,-8.604383469E-2,-7.160949707E-2
1.082927690E-1,-2.552399635E-1,-1.130490303E-1,-1.000618935E-1
1.132927690E-1,-3.048162460E-1,-1.595788002E-1,-5.668640137E-3
1.182927690E-1,-2.669434547E-1,-2.428054810E-1,4.618420601E-1
1.232927690E-1,-1.957724094E-1,-2.890605927E-1,3.827567101E-1
1.282927690E-1,-1.827676296E-1,-2.961144447E-1,2.442545891E-1
1.332927690E-1,-1.900959015E-1,-2.797098160E-1,1.063776016E-1
1.382927690E-1,-2.232601643E-1,-2.428078651E-1,-4.124498367E-2
1.432927690E-1,-2.539892197E-1,-1.877303123E-1,-1.720376015E-1
1.482927690E-1,-2.859783173E-1,-1.429538727E-1,-2.556753159E-1
1.532927690E-1,-2.921566963E-1,-9.137010574E-2,-3.479518890E-1
1.582927690E-1,-3.055415154E-1,-7.040023804E-2,-4.069628716E-1
1.632927690E-1,-3.167252541E-1,-4.217481613E-2,-4.433984756E-1
1.682927690E-1,-3.318340778E-1,-3.842830658E-2,-4.386172295E-1
1.732927690E-1,-3.294959068E-1,-2.441501617E-2,-4.228610992E-1
1.782927690E-1,-3.222172260E-1,-2.546596527E-2,-3.649678230E-1
1.832927690E-1,-3.262190819E-1,-1.961374283E-2,-2.939300537E-1
1.882927690E-1,-3.100485802E-1,-2.779674530E-2,-2.127838135E-1
1.932927690E-1,-2.669010162E-1,-3.824758530E-2,-1.477756500E-1
1.982927690E-1,-2.411744595E-1,-5.038452148E-2,-9.183597565E-2
2.032927690E-1,-2.046096325E-1,-5.480527878E-2,-3.619861603E-2
2.082927690E-1,-1.797699928E-1,-4.451370239E-2,1.540040970E-2
2.132927690E-1,-1.613214016E-1,-3.410148621E-2,3.628063202E-2
2.182927690E-1,-1.556410789E-1,-4.499530792E-2,4.086971283E-2
2.232927690E-1,-1.497514248E-1,-3.819990158E-2,5.410766602E-2
2.282927690E-1,-1.542451382E-1,-3.465366364E-2,4.169654846E-2
2.332927690E-1,-1.470646858E-1,-4.398250580E-2,1.367521286E-2
2.382927690E-1,-1.286993027E-1,-4.728364944E-2,-1.227760315E-2
2.432927690E-1,-1.051075459E-1,-5.404376984E-2,-4.295873642E-2
2.482927690E-1,-8.021593094E-2,-8.021020889E-2,-5.709362030E-2
2.532927690E-1,-5.515480042E-2,-8.837985992E-2,-9.145736694E-2
2.582927690E-1,-2.342009544E-2,-8.272647858E-2,-1.337742805E-1
2.632927690E-1,-8.548021317E-3,-6.263780594E-2,-1.556615829E-1
2.682927690E-1,-2.512526512E-2,-3.629541397E-2,-1.554417610E-1
2.732927690E-1,-1.231770515E-1,-1.252555847E-2,-1.585054398E-1
2.782927690E-1,-2.094635963E-1,-4.200935364E-3,-1.670002937E-1
2.832927690E-1,-2.664453983E-1,-1.950454712E-2,-1.585507393E-1
2.882927690E-1,-2.979044914E-1,-3.843641281E-2,-1.447815895E-1
2.932927690E-1,-3.251461983E-1,-4.404067993E-2,-1.372771263E-1
2.982927690E-1,-3.141591549E-1,-6.512975693E-2,-1.169543266E-1
3.032927690E-1,-2.940583229E-1,-7.161521912E-2,-8.495283127E-2
3.082927690E-1,-2.636106014E-1,-8.124637604E-2,-5.187797546E-2
3.132927690E-1,-2.446267605E-1,-9.048557281E-2,-2.536439896E-2
3.182927690E-1,-2.241153717E-1,-8.388805389E-2,1.756429672E-2
3.232927690E-1,-2.223577499E-1,-9.429502487E-2,4.615068436E-2
3.282927690E-1,-2.179281712E-1,-8.362388611E-2,7.803392410E-2
3.332927690E-1,-1.713902950E-1,-7.167720795E-2,1.118631363E-1
3.382927690E-1,-1.537301540E-1,-5.667638779E-2,1.722812653E-1
3.432927690E-1,-1.716055870E-1,-4.208993912E-2,2.285351753E-1
3.482927690E-1,-1.549203396E-1,-2.977323532E-2,2.423233986E-1
3.532927690E-1,-1.386029720E-1,-2.572202682E-2,2.586455345E-1
3.582927690E-1,-1.127188206E-1,-1.845264435E-2,2.489156723E-1
3.632927690E-1,-6.182050705E-2,-8.471012115E-3,2.074165344E-1
3.682927690E-1,-6.294798851E-2,1.311492920E-2,1.656155586E-1
3.732927690E-1,-1.075236797E-1,2.099275589E-2,1.417751312E-1
3.782927690E-1,-1.597948074E-1,1.603174210E-2,8.273315430E-2
3.832927690E-1,-1.607365608E-1,-1.108646393E-2,3.258323669E-2
3.882927690E-1,-1.781587601E-1,-4.508924484E-2,-1.244449615E-2
3.932927690E-1,-2.253104448E-1,-9.895086288E-2,-3.314399719E-2
3.982927690E-1,-2.744908333E-1,-1.297950745E-1,-7.150459290E-2
4.032927690E-1,-2.112071514E-1,-1.386632919E-1,-8.274602890E-2
4.082927690E-1,-3.284716606E-1,-1.769266129E-1,-1.258735657E-1
4.132927690E-1,-2.929197550E-1,-1.560230255E-1,-1.124067307E-1
4.182927690E-1,-2.153782845E-1,-1.266965866E-1,-1.061482430E-1
4.232927690E-1,-1.748766899E-1,-1.111364365E-1,-9.059143066E-2
4.282927690E-1,-3.229281902E-1,-1.352519989E-1,-8.710098267E-2
4.332927690E-1,-3.338520527E-1,-8.868980408E-2,-3.723859787E-2
4.382927690E-1,-3.030960560E-1,-9.167861938E-2,7.755279541E-3
4.432927690E-1,-2.649807930E-1,-1.296677589E-1,7.958984375E-2
4.482927690E-1,-2.205009460E-1,-1.497960091E-1,1.425228119E-1
4.532927690E-1,-1.958611012E-1,-1.648092270E-1,2.093296051E-1
4.582927690E-1,-1.867667437E-1,-1.441240311E-1,2.464122772E-1
4.632927690E-1,-1.855455637E-1,-9.359598160E-2,2.647266388E-1
4.682927690E-1,-1.558719873E-1,-4.050827026E-2,2.558279037E-1
4.732927690E-1,-1.176966429E-1,1.420879364E-2,2.533559799E-1
4.782927690E-1,-5.570840836E-2,5.136728287E-2,2.577066422E-1
4.832927690E-1,-1.076900959E-2,8.732318878E-2,2.599439621E-1
4.882927690E-1,4.115808010E-2,1.086893082E-1,2.697687149E-1
4.932927690E-1,8.988249302E-2,1.148719788E-1,2.587146759E-1
4.982927690E-1,1.300098896E-1,1.288771629E-1,2.698040009E-1
5.032927690E-1,1.790072918E-1,1.663465500E-1,2.697706223E-1
5.082927690E-1,1.907489300E-1,1.834969521E-1,2.980680466E-1
5.132927690E-1,1.900715828E-1,2.012600899E-1,3.262357712E-1
5.182927690E-1,1.738951206E-1,1.931095123E-1,3.404674530E-1
5.232927690E-1,1.359949112E-1,1.755113602E-1,3.658046722E-1
5.282927690E-1,9.895634651E-2,1.514468193E-1,3.725500107E-1
5.332927690E-1,6.137502193E-2,1.245031357E-1,3.654155731E-1
5.382927690E-1,1.318418980E-2,7.965373993E-2,3.757276535E-1
5.432927690E-1,7.151961327E-3,3.455066681E-2,3.665370941E-1
5.482927690E-1,1.136064529E-4,1.066446304E-2,3.747692108E-1
5.532927690E-1,-3.729426861E-2,-6.932735443E-3,3.783607483E-1
5.582927690E-1,-9.010255337E-2,-5.323886871E-3,4.045238495E-1
5.632927690E-1,-1.177242994E-1,2.415657043E-3,3.983831406E-1
5.682927690E-1,-1.432045698E-1,3.454685211E-3,3.658466339E-1
5.732927690E-1,-1.396051645E-1,2.171468735E-2,3.275260925E-1
5.782927690E-1,-1.149027348E-1,1.864290237E-2,2.802972794E-1
5.832927690E-1,-1.105988026E-1,1.936435699E-2,2.648773193E-1
5.882927690E-1,-1.075332165E-1,1.673793793E-2,2.254467010E-1
5.932927690E-1,-1.020677090E-1,2.889871597E-2,1.931343079E-1
5.982927690E-1,-1.000888348E-1,4.517412186E-2,1.443862915E-1
6.032927690E-1,-1.038929224E-1,5.608892441E-2,1.457271576E-1
6.082927690E-1,-9.969055653E-2,7.512187958E-2,1.429681778E-1
6.132927690E-1,-9.977352619E-2,1.002984047E-1,1.593751907E-1
6.182927690E-1,-9.451198578E-2,9.015750885E-2,1.223554611E-1
6.232927690E-1,-7.581675053E-2,6.658887863E-2,1.113080978E-1
6.282927690E-1,-5.402731895E-2,4.647874832E-2,8.155918121E-2
6.332927690E-1,-4.482042789E-2,3.726387024E-2,1.103305817E-1
6.382927690E-1,-2.996456623E-2,3.444623947E-2,1.452274323E-1
6.432927690E-1,-1.755547523E-2,5.071353912E-2,1.423892975E-1
6.482927690E-1,1.925277710E-2,7.627630234E-2,1.347103119E-1
6.532927690E-1,8.056712151E-2,9.827518463E-2,1.190567017E-1
6.582927690E-1,1.568045616E-1,1.206612587E-1,1.405277252E-1
6.632927690E-1,2.367852926E-1,1.431388855E-1,1.780643463E-1
6.682927690E-1,2.751535177E-1,1.358723640E-1,2.002077103E-1
6.732927690E-1,2.154495716E-1,1.210384369E-1,2.210016251E-1
6.782927690E-1,2.409914732E-1,1.437840462E-1,2.651319504E-1
6.832927690E-1,2.071212530E-1,1.222634315E-1,2.825908661E-1
6.882927690E-1,1.403132677E-1,1.213617325E-1,3.039407730E-1
6.932927690E-1,8.175933361E-2,3.708887100E-2,2.989234924E-1
6.982927690E-1,3.750085831E-2,2.043104172E-2,3.345651627E-1
7.032927690E-1,2.246744633E-1,-6.378984451E-2,4.246997833E-1
7.082927690E-1,1.818207502E-1,-6.579065323E-2,4.400320053E-1
7.132927690E-1,-1.166462898E-3,5.971336365E-2,4.024829865E-1
7.182927690E-1,-1.542096138E-1,1.068387032E-1,4.093513489E-1
7.232927690E-1,-3.140788078E-1,1.034812927E-1,4.118661880E-1
7.282927690E-1,-3.942259550E-1,6.308841705E-2,3.459882736E-1
7.332927690E-1,-3.618163466E-1,6.124687195E-2,2.993221283E-1
7.382927690E-1,-2.900086641E-1,4.775428772E-2,2.457046509E-1
7.432927690E-1,-2.140985727E-1,2.182102203E-2,1.860761642E-1
7.482927690E-1,-1.184294224E-1,-9.215354919E-3,1.193256378E-1
7.532927690E-1,-1.343357563E-2,-4.335212708E-2,6.576919556E-2
7.582927690E-1,7.896637917E-2,-5.572462082E-2,-1.768684387E-2
7.632927690E-1,1.431773901E-1,-4.832410812E-2,-8.662223816E-2
7.682927690E-1,1.890113354E-1,-4.164457321E-2,-1.349668503E-1
7.732927690E-1,1.799067259E-1,-1.187038422E-2,-1.706619263E-1
7.782927690E-1,1.536878347E-1,3.050899506E-2,-2.044725418E-1
7.832927690E-1,1.098738909E-1,6.654548645E-2,-2.153544426E-1
7.882927690E-1,6.038808823E-2,1.148014069E-1,-1.636791229E-1
7.932927690E-1,3.581070900E-2,1.575069427E-1,-1.343641281E-1
7.982927690E-1,1.920235157E-2,1.917595863E-1,-4.570293427E-2
8.032927690E-1,2.312898636E-3,1.987285614E-1,2.197456360E-2
8.082927690E-1,-7.855176926E-3,1.976642609E-1,6.424713135E-2
8.132927690E-1,-1.410603523E-3,1.678886414E-1,1.233930588E-1
8.182927690E-1,2.425515652E-2,1.279220581E-1,1.996049881E-1
8.232927690E-1,6.080830097E-2,6.860637665E-2,2.576599121E-1
8.282927690E-1,1.002297401E-1,3.041267395E-2,2.927398682E-1
8.332927690E-1,1.314668655E-1,-2.166175842E-2,3.071575165E-1
8.382927690E-1,1.602249146E-1,-7.806825638E-2,3.411750793E-1
8.432927690E-1,1.629528999E-1,-8.933305740E-2,3.735055923E-1
8.482927690E-1,1.346327066E-1,-1.061105728E-1,4.145631790E-1
8.532927690E-1,9.467732906E-2,-1.216173172E-1,4.252672195E-1
8.582927690E-1,5.152904987E-2,-1.315975189E-1,4.115648270E-1
8.632927690E-1,1.276707649E-2,-1.294918060E-1,3.536968231E-1
8.682927690E-1,-1.881158352E-2,-1.273608208E-1,2.662906647E-1
8.732927690E-1,-3.735363483E-2,-1.047577858E-1,1.530618668E-1
8.782927690E-1,-6.059193611E-2,-6.593561172E-2,5.857753754E-2
8.832927690E-1,-1.009856462E-1,-6.223964691E-2,-5.045700073E-2
8.882927690E-1,-1.331396103E-1,-2.976131439E-2,-1.297197342E-1
8.932927690E-1,-1.536998749E-1,-5.376100540E-2,-1.725625992E-1
8.982927690E-1,-1.429574490E-1,-8.154964447E-2,-1.790657043E-1
9.032927690E-1,-1.230105162E-1,-1.174387932E-1,-1.914334297E-1
9.082927690E-1,-6.304419041E-2,-1.286578178E-1,-1.542863846E-1
9.132927690E-1,1.324295998E-2,-1.367969513E-1,-1.098423004E-1
9.182927690E-1,6.149744987E-2,-1.246705055E-1,-7.968521118E-2
9.232927690E-1,5.746471882E-2,-6.987237930E-2,-4.291248322E-2
9.282927690E-1,3.865730762E-2,-1.509714127E-2,-1.897907257E-2
9.332927690E-1,2.730643749E-2,2.524852753E-2,-5.312538147E-2
9.382927690E-1,-6.322503090E-3,6.605482101E-2,-9.060764313E-2
9.432927690E-1,-3.099906445E-2,7.987451553E-2,-1.161127090E-1
9.482927690E-1,-3.438496590E-2,8.056449890E-2,-1.542940140E-1
9.532927690E-1,-5.281698704E-2,7.283353806E-2,-1.915035248E-1
9.582927690E-1,-4.505681992E-2,4.010152817E-2,-2.328615189E-1
9.632927690E-1,-3.958094120E-2,3.641605377E-3,-2.642049789E-1
9.682927690E-1,-1.226651669E-2,-3.494024277E-2,-2.831449509E-1
9.732927690E-1,-8.215785027E-3,-4.799747467E-2,-2.570595741E-1
9.782927690E-1,-2.422404289E-2,-7.044029236E-2,-2.525620461E-1
9.832927690E-1,-6.958425045E-2,-8.213758469E-2,-2.473273277E-1
9.882927690E-1,-1.280912161E-1,-9.958314896E-2,-2.357616425E-1
9.932927690E-1,-1.881365776E-1,-1.268935204E-1,-2.420263290E-1
9.982927690E-1,-2.453436852E-1,-1.476845741E-1,-2.881956100E-1
1.003292769E0,-2.803667784E-1,-1.640510559E-1,-3.274526596E-1
1.008292769E0,-2.965584993E-1,-1.753921509E-1,-3.606224060E-1
1.013292769E0,-2.795937061E-1,-1.938390732E-1,-3.507881165E-1
1.018292769E0,-2.914265394E-1,-2.202568054E-1,-3.382468224E-1
1.023292769E0,-2.813949585E-1,-2.470774651E-1,-3.084554672E-1
1.028292769E0,-2.380650043E-1,-2.442526817E-1,-2.589383125E-1
1.033292769E0,-1.750515699E-1,-2.349681854E-1,-2.065668106E-1
1.038292769E0,-1.113798618E-1,-1.897926331E-1,-1.577243805E-1
1.043292769E0,-2.416825294E-2,-1.422772408E-1,-1.348199844E-1
1.048292769E0,5.872035027E-2,-7.480192184E-2,-1.210422516E-1
1.053292769E0,9.971666336E-2,6.836414337E-3,-1.286621094E-1
1.058292769E0,1.075618267E-1,7.458114624E-2,-1.209878922E-1
1.063292769E0,8.834969997E-2,1.431808472E-1,-1.248054504E-1
1.068292769E0,8.172166348E-2,1.841278076E-1,-1.558284760E-1
1.073292769E0,9.861898422E-2,2.024850845E-1,-1.668376923E-1
1.078292769E0,1.139228344E-1,2.002635002E-1,-1.908512115E-1
1.083292769E0,1.385236979E-1,2.114205360E-1,-1.946620941E-1
1.088292769E0,1.679580212E-1,1.940879822E-1,-1.693978310E-1
1.093292769E0,1.943843365E-1,2.015628815E-1,-1.342420578E-1
1.098292769E0,2.053071260E-1,2.087378502E-1,-1.107707024E-1
1.103292769E0,2.223738432E-1,2.174406052E-1,-5.648708344E-2
1.108292769E0,2.613697052E-1,2.116460800E-1,4.123210907E-2
1.113292769E0,2.975857258E-1,1.892085075E-1,1.191225052E-1
1.118292769E0,3.189573288E-1,1.830163002E-1,2.024116516E-1
1.123292769E0,3.152090311E-1,1.701831818E-1,2.812871933E-1
1.128292769E0,3.116264343E-1,1.467580795E-1,3.425397873E-1
1.133292769E0,2.842069864E-1,1.119837761E-1,3.657016754E-1
1.138292769E0,2.471623421E-1,7.929897308E-2,4.000940323E-1
1.143292769E0,1.629086733E-1,5.665397644E-2,4.242887497E-1
1.148292769E0,8.824992180E-2,7.175540924E-2,4.526357651E-1
1.153292769E0,5.157232285E-3,8.644676208E-2,4.868402481E-1
1.158292769E0,-6.915855408E-2,1.035676003E-1,4.833335876E-1
1.163292769E0,-1.064358950E-1,6.789922714E-2,4.651021957E-1
1.168292769E0,-1.115341187E-1,3.993177414E-2,4.150571823E-1
1.173292769E0,-7.225668430E-2,1.964092255E-2,3.641605377E-1
1.178292769E0,-2.001202106E-2,1.748657227E-2,3.167591095E-1
1.183292769E0,4.164481163E-2,3.367614746E-2,2.921485901E-1
1.188292769E0,1.297701597E-1,4.860353470E-2,2.642965317E-1
1.193292769E0,2.068537474E-1,6.351566315E-2,2.454719543E-1
1.198292769E0,2.861505747E-1,8.301401138E-2,2.393236160E-1
1.203292769E0,3.323875666E-1,1.069784164E-1,2.213888168E-1
1.208292769E0,3.454035521E-1,1.090030670E-1,1.830606461E-1
1.213292769E0,3.481979370E-1,9.505367279E-2,1.120615005E-1
1.218292769E0,3.209608793E-1,8.076334000E-2,3.291797638E-2
1.223292769E0,2.869991064E-1,6.786012650E-2,-4.760646820E-2
1.228292769E0,2.289228439E-1,4.461956024E-2,-1.460590363E-1
1.233292769E0,1.715775728E-1,1.271629333E-2,-2.365207672E-1
1.238292769E0,8.895349503E-2,-9.070396423E-3,-3.088459969E-1
1.243292769E0,1.797592640E-2,-1.543569565E-2,-3.922204971E-1
1.248292769E0,-5.996239185E-2,6.744861603E-3,-4.636631012E-1
1.253292769E0,-1.172034740E-1,4.244804382E-3,-5.043559074E-1
1.258292769E0,-1.696873903E-1,2.464389801E-2,-5.337085724E-1
1.263292769E0,-1.866109371E-1,3.562355042E-2,-5.007371902E-1
1.268292769E0,-1.845506430E-1,3.864669800E-2,-4.523029327E-1
1.273292769E0,-1.597994566E-1,3.142309189E-2,-4.100117683E-1
1.278292769E0,-1.151715517E-1,4.238128662E-3,-3.542456627E-1
1.283292769E0,-6.186079979E-2,-2.702283859E-2,-3.062305450E-1
1.288292769E0,-3.127098083E-2,-6.435585022E-2,-2.650279999E-1
1.293292769E0,-2.669167519E-2,-8.966827393E-2,-2.331190109E-1
1.298292769E0,-3.356039524E-2,-1.291027069E-1,-2.035064697E-1
1.303292769E0,-6.763827801E-2,-1.477150917E-1,-1.776862144E-1
1.308292769E0,-1.073135138E-1,-1.477837563E-1,-1.358351707E-1
1.313292769E0,-1.206865311E-1,-1.475901604E-1,-9.830379486E-2
1.318292769E0,-1.403776407E-1,-1.480526924E-1,-5.612277985E-2
1.323292769E0,-1.490818262E-1,-1.394171715E-1,-2.703762054E-2
1.328292769E0,-1.610763073E-1,-1.291499138E-1,-1.971244812E-2
1.333292769E0,-1.644552946E-1,-9.627151489E-2,-3.872680664E-2
1.338292769E0,-1.711988449E-1,-4.871797562E-2,-6.803512573E-2
1.343292769E0,-1.717749834E-1,6.891727448E-3,-9.740066528E-2
1.348292769E0,-1.697419882E-1,5.364131927E-2,-1.110353470E-1
1.353292769E0,-1.480146646E-1,7.668304443E-2,-1.019029617E-1
1.358292769E0,-1.216547489E-1,9.847640991E-2,-6.474208832E-2
1.363292769E0,-1.119678020E-1,1.095666885E-1,-1.633739471E-2
1.368292769E0,-1.106775999E-1,9.534025192E-2,4.649734497E-2
1.373292769E0,-1.086864471E-1,9.492921829E-2,7.709312439E-2
1.378292769E0,-1.011873484E-1,7.112884521E-2,7.351493835E-2
1.383292769E0,-9.189128876E-2,5.358791351E-2,7.258605957E-2
1.388292769E0,-9.655523300E-2,2.832889557E-2,8.663654327E-2
1.393292769E0,-1.025992632E-1,-1.993560791E-2,9.265899658E-2
1.398292769E0,-1.166292429E-1,-7.281923294E-2,9.807777405E-2
1.403292769E0,-1.575542688E-1,-9.329700470E-2,1.069726944E-1
1.408292769E0,-2.440274954E-1,-9.958314896E-2,1.220178604E-1
1.413292769E0,-3.109472990E-1,-1.032366753E-1,1.467962265E-1
1.418292769E0,-3.539485931E-1,-9.259986877E-2,1.770439148E-1
1.423292769E0,-3.512662649E-1,-8.867120743E-2,1.981420517E-1
1.428292769E0,-3.280636072E-1,-5.596303940E-2,2.362174988E-1
1.433292769E0,-2.864816189E-1,-4.620790482E-2,2.611789703E-1
1.438292769E0,-2.406529188E-1,-6.326007843E-2,2.578954697E-1
1.443292769E0,-2.107659578E-1,-7.901430130E-2,2.502870560E-1
1.448292769E0,-1.740357876E-1,-9.187889099E-2,2.536125183E-1
1.453292769E0,-1.517466307E-1,-1.004605293E-1,2.915258408E-1
1.458292769E0,-1.023625135E-1,-9.563541412E-2,3.701686859E-1
1.463292769E0,-3.375303745E-2,-8.213663101E-2,4.393453598E-1
1.468292769E0,7.778036594E-2,-5.826473236E-2,4.370393753E-1
1.473292769E0,1.829185486E-1,-4.062938690E-2,3.881254196E-1
1.478292769E0,2.103258371E-1,-4.881525040E-2,3.173007965E-1
1.483292769E0,1.902885437E-1,-3.511810303E-2,2.605772018E-1
1.488292769E0,1.512835026E-1,-1.115226746E-2,1.939191818E-1
1.493292769E0,9.518516064E-2,5.185127258E-3,1.245040894E-1
1.498292769E0,2.272248268E-2,4.977655411E-2,7.298946381E-2
1.503292769E0,-5.543589592E-3,1.040687561E-1,2.881813049E-2
1.508292769E0,3.254580498E-2,1.666150093E-1,1.282501221E-2
1.513292769E0,9.097826481E-2,2.139964104E-1,2.565288544E-2
1.518292769E0,1.284079552E-1,2.470698357E-1,2.681064606E-2
1.523292769E0,1.438796520E-1,2.512183189E-1,8.487701416E-3
1.528292769E0,1.224917173E-1,2.047472000E-1,1.205539703E-2
1.533292769E0,-3.023540974E-2,3.529548645E-2,-3.253459930E-2
1.538292769E0,-3.220770359E-1,-2.109103203E-1,-1.700997353E-1
1.543292769E0,-1.649780273E-1,2.479887009E-2,-6.172084808E-2
1.548292769E0,-8.486366272E-2,1.490583420E-1,-6.715440750E-2
1.553292769E0,-4.195928574E-2,2.635202408E-1,2.347040176E-2
1.558292769E0,-2.960228920E-2,3.001179695E-1,1.209597588E-1
1.563292769E0,-7.040262222E-3,2.955236435E-1,1.532135010E-1
1.568292769E0,6.552326679E-2,3.040080070E-1,1.853089333E-1
1.573292769E0,1.622357368E-1,3.342027664E-1,2.164325714E-1
1.578292769E0,2.936053276E-1,2.943921089E-1,2.703213692E-1
1.583292769E0,2.848619223E-1,3.515009880E-1,2.830615044E-1
1.588292769E0,2.147337198E-1,3.331065178E-1,2.323441505E-1
1.593292769E0,3.723263741E-2,2.764863968E-1,1.132555008E-1
1.598292769E0,-8.061528206E-3,1.649212837E-1,-4.621791840E-2
1.603292769E0,9.104704857E-2,1.410341263E-1,-1.174998283E-1
1.608292769E0,1.998233795E-1,1.313467026E-1,-3.437223434E-1
1.613292769E0,7.230429649E-1,-5.418872833E-1,-1.637900829E0
1.618292769E0,8.403918743E-1,-1.097226143E-1,-9.652290344E-1
1.623292769E0,7.842268944E-1,3.854866028E-1,-7.182741165E-2
1.628292769E0,5.207300186E-1,5.112123489E-1,-1.627111435E-1
1.633292769E0,2.126767635E-1,6.308546066E-1,-2.862854004E-1
1.638292769E0,-5.966234207E-2,7.434101105E-1,-7.557535172E-2
1.643292769E0,-2.603745461E-1,7.558288574E-1,8.127880096E-2
1.648292769E0,-7.433941364E-1,5.016813278E-1,2.179765701E-2
1.653292769E0,-1.122228861E0,4.958438873E-2,-2.242946625E-1
1.658292769E0,-7.665462494E-1,-2.678594589E-1,-4.852676392E-1
1.663292769E0,-4.044592381E-1,-1.976509094E-1,-5.187530518E-1
1.668292769E0,-7.917857170E-2,-4.912376404E-3,-3.683977127E-1
1.673292769E0,1.777977943E-1,2.197923660E-1,-5.688333511E-2
1.678292769E0,2.849240303E-1,4.508666992E-1,3.286981583E-1
1.683292769E0,3.183374405E-1,5.771799088E-1,6.738138199E-1
1.688292769E0,3.238496780E-1,5.801968575E-1,9.873085022E-1
1.693292769E0,2.862751484E-1,4.801549911E-1,1.147624969E0
1.698292769E0,1.563930511E-1,3.359351158E-1,1.149647236E0
1.703292769E0,-2.029418945E-2,1.711869240E-1,9.397730827E-1
1.708292769E0,-1.129970551E-1,6.501817703E-2,7.642006874E-1
1.713292769E0,-1.537399292E-1,8.425712585E-3,5.947618484E-1
1.718292769E0,-1.355736256E-1,3.300333023E-2,4.833931923E-1
1.723292769E0,-1.524806023E-2,7.346343994E-2,4.557375908E-1
1.728292769E0,1.237637997E-1,1.165919304E-1,4.892797470E-1
1.733292769E0,2.174305916E-1,1.082811356E-1,5.438041687E-1
1.738292769E0,3.108778000E-1,6.496334076E-2,6.311478615E-1
1.743292769E0,3.066394329E-1,-2.245330811E-2,6.646766663E-1
1.748292769E0,2.985432148E-1,-1.163110733E-1,6.909694672E-1
1.753292769E0,2.608544827E-1,-2.118692398E-1,6.690444946E-1
1.758292769E0,1.206660271E-1,-2.714266777E-1,4.573988914E-1
1.763292769E0,-8.876943588E-2,-2.974767685E-1,1.275620461E-1
1.768292769E0,-1.492362022E-1,-2.453422546E-1,-1.465930939E-1
1.773292769E0,-1.080904007E-1,-1.420836449E-1,-3.255696297E-1
1.778292769E0,-9.655261040E-2,1.028299332E-2,-3.518867493E-1
1.783292769E0,-7.316899300E-2,1.615390778E-1,-2.566566467E-1
1.788292769E0,-2.584648132E-2,2.678680420E-1,-1.026239395E-1
1.793292769E0,5.230045319E-2,3.099746704E-1,2.392244339E-2
1.798292769E0,1.202590466E-1,2.681999207E-1,1.297731400E-1
1.803292769E0,1.772968769E-1,2.186889648E-1,2.260370255E-1
1.808292769E0,1.465795040E-1,1.667623520E-1,2.750182152E-1
1.813292769E0,7.740283012E-2,1.202201843E-1,3.465986252E-1
1.818292769E0,1.658320427E-2,5.342960358E-2,4.126639366E-1
1.823292769E0,-5.481576920E-2,-3.071689606E-2,4.680805206E-1
1.828292769E0,-7.413744926E-2,-1.465215683E-1,4.296908379E-1
1.833292769E0,-8.916711807E-2,-2.176370621E-1,3.488416672E-1
1.838292769E0,-1.196620464E-1,-2.332129478E-1,2.966618538E-1
1.843292769E0,-1.072213650E-1,-1.926813126E-1,2.092151642E-1
1.848292769E0,-3.995919228E-2,-1.220831871E-1,2.000455856E-1
1.853292769E0,-4.624247551E-2,-2.453660965E-2,1.450676918E-1
1.858292769E0,-1.073086262E-1,7.338094711E-2,2.708101273E-2
1.863292769E0,-1.406881809E-1,1.895208359E-1,-4.185009003E-2
1.868292769E0,-9.062218666E-2,2.610249519E-1,-6.715726852E-2
1.873292769E0,-3.638529778E-2,3.027582169E-1,-8.780097961E-2
1.878292769E0,-6.482601166E-4,2.799944878E-1,-1.439995766E-1
1.883292769E0,4.065990448E-2,2.091979980E-1,-1.765580177E-1
1.888292769E0,7.969307899E-2,1.352529526E-1,-1.816792488E-1
1.893292769E0,6.389260292E-2,6.431198120E-2,-1.765751839E-1
1.898292769E0,3.368067741E-2,1.892089844E-3,-9.301042557E-2
1.903292769E0,7.804632187E-3,-3.466224670E-2,4.304885864E-3
1.908292769E0,-5.569434166E-2,-8.113288879E-2,1.072883606E-4
1.913292769E0,-1.244950294E-1,-7.520675659E-2,-5.085849762E-2
1.918292769E0,-1.796445847E-1,-1.432561874E-2,-1.013059616E-1
1.923292769E0,-2.091541290E-1,1.027216911E-1,-1.848664284E-1
1.928292769E0,-2.649888992E-1,2.687592506E-1,-3.549776077E-1
1.933292769E0,-3.951222897E-1,3.796887398E-1,-4.006023407E-1
1.938292769E0,-3.232696056E-1,3.811450005E-1,-4.358339310E-1
1.943292769E0,-7.855558395E-2,3.428201675E-1,-5.274353027E-1
1.948292769E0,1.815679073E-1,2.951731682E-1,-6.500444412E-1
1.953292769E0,2.613978386E-1,2.424225807E-1,-7.693867683E-1
1.958292769E0,2.334389687E-1,1.835498810E-1,-8.642544746E-1
1.963292769E0,2.356836796E-1,1.345205307E-1,-9.003510475E-1
1.968292769E0,2.520885468E-1,9.935379028E-2,-8.008894920E-1
1.973292769E0,2.926442623E-1,4.409122467E-2,-5.531463623E-1
1.978292769E0,3.342342377E-1,-2.831792831E-2,-1.859612465E-1
1.983292769E0,3.121218681E-1,-1.463446617E-1,1.822509766E-1
1.988292769E0,3.070356846E-1,-3.195924759E-1,5.511808395E-1
1.993292769E0,2.863254547E-1,-4.729204178E-1,9.074120522E-1
1.998292769E0,3.619861603E-2,-6.038923264E-1,1.218405724E0
2.003292769E0,-2.341632843E-1,-6.360034943E-1,1.423568249E0
2.008292769E0,-4.557883739E-1,-6.407375336E-1,1.493358612E0
2.013292769E0,-6.447744370E-1,-5.800600052E-1,1.485905647E0
2.018292769E0,-7.917675972E-1,-5.180726051E-1,1.322490215E0
2.023292769E0,-8.434414864E-1,-4.450426102E-1,1.023467541E0
2.028292769E0,-7.668228149E-1,-3.604884148E-1,6.426191330E-1
2.033292769E0,-6.958627701E-1,-2.431783676E-1,2.281436920E-1
2.038292769E0,-5.993380547E-1,-8.657073975E-2,-1.625947952E-1
2.043292769E0,-4.583549500E-1,3.918695450E-2,-4.287376404E-1
2.048292769E0,-3.060498238E-1,7.697963715E-2,-6.028132439E-1
2.053292769E0,-1.210854053E-1,6.053924561E-2,-7.466444969E-1
2.058292769E0,5.603885651E-2,1.857089996E-2,-8.830342293E-1
2.063292769E0,1.231682301E-1,-2.812671661E-2,-9.763221741E-1
2.068292769E0,9.353256226E-2,-7.366323471E-2,-9.966549873E-1
2.073292769E0,-2.383708954E-3,-1.394357681E-1,-1.015280724E0
2.078292769E0,-8.415627480E-2,-1.652307510E-1,-9.444632530E-1
2.083292769E0,-1.650366783E-1,-1.931915283E-1,-8.168997765E-1
2.088292769E0,-2.493152618E-1,-1.859703064E-1,-6.597552299E-1
2.093292769E0,-3.469684124E-1,-1.950497627E-1,-5.008115768E-1
2.098292769E0,-4.314138889E-1,-2.010865211E-1,-3.502006531E-1
2.103292769E0,-4.578816891E-1,-1.995873451E-1,-2.215528488E-1
2.108292769E0,-4.245414734E-1,-2.046079636E-1,-1.894087791E-1
2.113292769E0,-3.873133659E-1,-1.990509033E-1,-2.385292053E-1
2.118292769E0,-3.099396229E-1,-1.954088211E-1,-2.157239914E-1
2.123292769E0,-2.596490383E-1,-1.890292168E-1,-1.691794395E-1
2.128292769E0,-2.414832115E-1,-1.939096451E-1,-9.752893448E-2
2.133292769E0,-1.881344318E-1,-2.184720039E-1,-3.487682343E-2
2.138292769E0,-1.583001614E-1,-2.952489853E-1,1.614713669E-2
2.143292769E0,-1.565237045E-1,-3.742847443E-1,6.910133362E-2
2.148292769E0,-1.996262074E-1,-4.587879181E-1,8.836269379E-2
2.153292769E0,-2.725551128E-1,-5.053071976E-1,4.823446274E-2
2.158292769E0,-3.858976364E-1,-4.983105659E-1,-6.042003632E-3
2.163292769E0,-4.861879349E-1,-4.510860443E-1,-9.182357788E-2
2.168292769E0,-5.584247112E-1,-3.991875648E-1,-2.062654495E-1
2.173292769E0,-5.601665974E-1,-3.393406868E-1,-3.744382858E-1
2.178292769E0,-4.902632236E-1,-2.832703590E-1,-5.274667740E-1
2.183292769E0,-4.082953930E-1,-2.412424088E-1,-6.702475548E-1
2.188292769E0,-3.642656803E-1,-1.994962692E-1,-7.560110092E-1
2.193292769E0,-3.473575115E-1,-2.014822960E-1,-7.981748581E-1
2.198292769E0,-3.275201321E-1,-2.497439384E-1,-8.275265694E-1
2.203292769E0,-2.710924149E-1,-3.559842110E-1,-8.846559525E-1
2.208292769E0,-2.073428631E-1,-4.947772026E-1,-9.466595650E-1
2.213292769E0,-2.161567211E-1,-5.345807076E-1,-9.560875893E-1
2.218292769E0,-2.489976883E-1,-4.653220177E-1,-9.668803215E-1
2.223292769E0,-2.782235146E-1,-3.846917152E-1,-9.326214790E-1
2.228292769E0,-2.365593910E-1,-2.920708656E-1,-8.527092934E-1
2.233292769E0,-1.116316319E-1,-2.269997597E-1,-7.568931580E-1
2.238292769E0,3.523564339E-2,-1.611084938E-1,-6.657476425E-1
2.243292769E0,1.825919151E-1,-6.013202667E-2,-5.822825432E-1
2.248292769E0,3.076424599E-1,3.324842453E-2,-4.881978035E-1
2.253292769E0,3.680922985E-1,1.078977585E-1,-3.915596008E-1
2.258292769E0,3.612103462E-1,1.033620834E-1,-3.004474640E-1
2.263292769E0,3.040249348E-1,5.651092529E-2,-2.007179260E-1
2.268292769E0,2.561852932E-1,9.680747986E-3,-8.837509155E-2
2.273292769E0,2.160854340E-1,-2.906894684E-2,1.151943207E-2
2.278292769E0,1.656098366E-1,-5.021619797E-2,6.128644943E-2
2.283292769E0,1.237354279E-1,-9.261274338E-2,5.242347717E-2
2.288292769E0,3.886437416E-2,-1.734414101E-1,3.703117371E-3
2.293292769E0,-1.905322075E-2,-3.044314384E-1,-2.617406845E-2
2.298292769E0,-3.637504578E-2,-4.246401787E-1,-4.741811752E-2
2.303292769E0,-8.906364441E-3,-5.642390251E-1,-1.063189507E-1
2.308292769E0,2.247333527E-2,-6.084871292E-1,-1.663341522E-1
2.313292769E0,5.654954910E-2,-5.703592300E-1,-1.885919571E-1
2.318292769E0,3.688526154E-2,-4.970021248E-1,-1.940536499E-1
2.323292769E0,-1.251411438E-2,-4.159860611E-1,-1.569724083E-1
2.328292769E0,-4.950475693E-2,-3.519086838E-1,-8.053636551E-2
2.333292769E0,-8.383131027E-2,-3.305993080E-1,-4.343128204E-2
2.338292769E0,-7.998490334E-2,-2.908549309E-1,-1.864290237E-2
2.343292769E0,-5.354142189E-2,-2.736477852E-1,-5.919837952E-2
2.348292769E0,-1.804518700E-2,-2.438507080E-1,-9.315919876E-2
2.353292769E0,-1.753783226E-2,-2.189097404E-1,-1.415643692E-1
2.358292769E0,-4.118442535E-3,-1.801381111E-1,-1.699519157E-1
2.363292769E0,5.979812145E-2,-1.058297157E-1,-1.692199707E-1
2.368292769E0,1.569635868E-1,2.472448349E-2,-1.650829315E-1
2.373292769E0,2.010313272E-1,1.923375130E-1,-1.037330627E-1
2.378292769E0,2.287222147E-1,3.783578873E-1,5.870771408E-2
2.383292769E0,2.482320070E-1,5.274820328E-1,2.625522614E-1
2.388292769E0,2.451336384E-1,6.516013145E-1,4.711594582E-1
2.393292769E0,2.855517864E-1,7.134456635E-1,6.579761505E-1
2.398292769E0,4.057288170E-1,7.220249176E-1,7.962980270E-1
2.403292769E0,5.334701538E-1,6.731271744E-1,8.568291664E-1
2.408292769E0,6.385285854E-1,5.850539207E-1,8.495373726E-1
2.413292769E0,6.281090975E-1,4.795742035E-1,7.738437653E-1
2.418292769E0,5.415102243E-1,3.863735199E-1,6.602196693E-1
2.423292769E0,4.004707336E-1,3.126187325E-1,5.204815865E-1
2.428292769E0,2.522299290E-1,2.836995125E-1,3.805475235E-1
2.433292769E0,1.051537991E-1,2.539772987E-1,2.804551125E-1
2.438292769E0,-2.244949341E-2,2.147693634E-1,2.597832680E-1
2.443292769E0,-1.252630949E-1,1.768479347E-1,2.974209785E-1
2.448292769E0,-1.682764292E-1,1.036777496E-1,3.258190155E-1
2.453292769E0,5.422198772E-2,-1.416454315E-1,5.781521797E-1
2.458292769E0,1.608853459E0,-8.458843231E-1,1.294749260E0
2.463292769E0,1.704357505E0,-6.380963326E-1,6.577963829E-1
2.468292769E0,3.358099461E-1,-2.209377289E-2,-1.067962646E-1
2.473292769E0,-2.130284309E-1,2.575535774E-1,-1.129269600E-1
2.478292769E0,4.681396484E-2,2.587342262E-1,1.910147667E-1
2.483292769E0,3.673911095E-1,1.456556320E-1,3.185548782E-1
2.488292769E0,3.768599033E-1,4.393148422E-2,1.381020546E-1
2.493292769E0,1.570923328E-1,2.146244049E-2,-1.166310310E-1
2.498292769E0,-6.436383724E-2,-1.859664917E-4,-2.494220734E-1
2.503292769E0,-1.827135086E-1,1.587724686E-2,-2.778706551E-1
2.508292769E0,-1.982665062E-1,4.338026047E-2,-2.830433846E-1
2.513292769E0,-1.568863392E-1,8.492612839E-2,-2.572727203E-1
2.518292769E0,-1.341838837E-1,1.046190262E-1,-2.779083252E-1
2.523292769E0,-1.137226820E-1,1.184897423E-1,-2.917995453E-1
2.528292769E0,-8.938825130E-2,9.602355957E-2,-3.253159523E-1
2.533292769E0,-6.374955177E-2,5.891513824E-2,-3.084578514E-1
2.538292769E0,-7.677984238E-2,4.256486893E-2,-2.777810097E-1
2.543292769E0,-1.173176765E-1,2.920341492E-2,-2.205643654E-1
2.548292769E0,-1.338994503E-1,1.987457275E-2,-1.637110710E-1
2.553292769E0,-1.551234722E-1,-6.275653839E-3,-1.233544350E-1
2.558292769E0,-1.606950760E-1,2.126693726E-4,-6.197452545E-2
2.563292769E0,-1.421203613E-1,4.639625549E-4,-2.532863617E-2
2.568292769E0,-1.364579201E-1,-1.773834229E-3,1.067543030E-2
2.573292769E0,-1.455388069E-1,-3.057336807E-2,4.559612274E-2
2.578292769E0,-1.263995171E-1,-1.584005356E-2,6.757688522E-2
2.583292769E0,-7.678341866E-2,3.777694702E-2,9.324216843E-2
2.588292769E0,-7.043087482E-2,1.731152534E-1,1.027045250E-1
2.593292769E0,-4.772901535E-3,1.964411736E-1,1.387305260E-1
2.598292769E0,2.048884630E-1,1.390461922E-1,1.657505035E-1
2.603292769E0,3.379342556E-1,8.927488327E-2,1.705365181E-1
2.608292769E0,4.247686863E-1,6.818628311E-2,1.899490356E-1
2.613292769E0,5.578254461E-1,5.034875870E-2,2.355003357E-1
2.618292769E0,6.393183470E-1,5.735778809E-2,2.723307610E-1
2.623292769E0,6.322355270E-1,9.027814865E-2,2.987513542E-1
2.628292769E0,5.708521605E-1,1.363902092E-1,3.167200089E-1
2.633292769E0,5.604338646E-1,1.799349785E-1,3.344869614E-1
2.638292769E0,5.521026850E-1,2.294635773E-1,3.343048096E-1
2.643292769E0,4.987747669E-1,2.692370415E-1,3.005676270E-1
2.648292769E0,4.263349771E-1,3.003492355E-1,3.172264099E-1
2.653292769E0,3.857281208E-1,3.377323151E-1,3.446359634E-1
2.658292769E0,3.736648560E-1,3.571434021E-1,3.904838562E-1
2.663292769E0,3.282113075E-1,3.477544785E-1,4.163341522E-1
2.668292769E0,2.275885344E-1,2.999405861E-1,4.423398972E-1
2.673292769E0,1.186072826E-1,2.194170952E-1,4.499549866E-1
2.678292769E0,4.420721531E-2,1.301383972E-1,4.515714645E-1
2.683292769E0,6.044232845E-2,6.481504440E-2,4.209384918E-1
2.688292769E0,1.172221899E-1,2.875089645E-2,3.821763992E-1
2.693292769E0,1.894786358E-1,3.124046326E-2,3.402891159E-1
2.698292769E0,2.797863483E-1,4.733610153E-2,3.138914108E-1
2.703292769E0,3.247736692E-1,6.767416000E-2,3.081645966E-1
2.708292769E0,3.314067125E-1,9.744691849E-2,3.048152924E-1
2.713292769E0,3.144429922E-1,1.378636360E-1,2.969322205E-1
2.718292769E0,2.938339710E-1,1.633062363E-1,2.638502121E-1
2.723292769E0,3.192813396E-1,1.715154648E-1,1.951828003E-1
2.728292769E0,3.519527912E-1,2.076039314E-1,1.489944458E-1
2.733292769E0,3.725749254E-1,2.662782669E-1,1.233949661E-1
2.738292769E0,3.940474987E-1,3.310537338E-1,1.032266617E-1
2.743292769E0,4.275132418E-1,3.730044365E-1,9.325981140E-2
2.748292769E0,4.473044872E-1,4.078822136E-1,8.054065704E-2
2.753292769E0,4.782476425E-1,4.044408798E-1,9.441471100E-2
2.758292769E0,4.981914759E-1,3.549566269E-1,1.093826294E-1
2.763292769E0,5.248901844E-1,3.365621567E-1,2.581987381E-1
2.768292769E0,5.624399185E-1,3.663372993E-1,5.429735184E-1
2.773292769E0,5.085550547E-1,2.935490608E-1,5.331687927E-1
2.778292769E0,4.195215702E-1,1.664018631E-1,3.806991577E-1
2.783292769E0,-1.177550554E-1,-7.325940132E-1,3.738279343E-1
2.788292769E0,-2.035020590E-1,-1.181848049E0,3.881196976E-1
2.793292769E0,4.551203251E-1,-1.241795063E0,3.033294678E-1
2.798292769E0,7.403298616E-1,-7.373719215E-1,1.143741608E-2
2.803292769E0,4.153729677E-1,-9.484815598E-2,-1.065158844E-2
2.808292769E0,-1.547634602E-2,3.126187325E-1,1.430406570E-1
2.813292769E0,-1.917951107E-1,4.746170044E-1,2.460565567E-1
2.818292769E0,-1.410930157E-1,5.081515312E-1,1.526880264E-1
2.823292769E0,-2.512836456E-2,5.242137909E-1,-6.821823120E-2
2.828292769E0,1.243636608E-1,5.531668663E-1,-2.603821754E-1
2.833292769E0,2.287209034E-1,6.088876724E-1,-3.422574997E-1
2.838292769E0,2.842605114E-1,6.573333740E-1,-2.876334190E-1
2.843292769E0,3.146748543E-1,6.883144379E-1,-2.384185791E-1
2.848292769E0,2.712557316E-1,7.159318924E-1,-2.244062424E-1
2.853292769E0,1.705374718E-1,6.039214134E-1,-1.640195847E-1
2.858292769E0,1.077084541E-1,4.141993523E-1,-5.833816528E-2
2.863292769E0,1.281988621E-1,1.908164024E-1,3.026485443E-2
2.868292769E0,-1.330699921E-1,1.813540459E-1,1.444463730E-1
2.873292769E0,-4.345482588E-1,2.634253502E-1,3.662796021E-1
2.878292769E0,-6.430077553E-2,9.937667847E-2,5.767059326E-1
2.883292769E0,2.845077515E-1,-7.235288620E-2,6.023254395E-1
2.888292769E0,2.444665432E-1,-8.560323715E-2,5.015964508E-1
2.893292769E0,2.589025497E-1,-1.248283386E-1,4.932928085E-1
2.898292769E0,3.750250340E-1,-2.183022499E-1,5.412988663E-1
2.903292769E0,3.643302917E-1,-2.274813652E-1,5.317506790E-1
2.908292769E0,2.029597759E-1,-1.793398857E-1,5.059185028E-1
2.913292769E0,2.728414536E-2,-1.534628868E-1,4.918260574E-1
2.918292769E0,-8.025932312E-2,-1.552224159E-1,4.643945694E-1
2.923292769E0,-2.169988155E-1,-1.364583969E-1,3.561630249E-1
2.928292769E0,-4.754018784E-1,-1.813097000E-1,2.071399689E-1
2.933292769E0,-7.063996792E-1,-2.435917854E-1,6.956958771E-2
2.938292769E0,-9.455499649E-1,-2.548127174E-1,-2.528476715E-2
2.943292769E0,-1.128345609E0,-2.369775772E-1,-3.376102448E-2
2.948292769E0,-1.231537104E0,-2.393012047E-1,-1.343154907E-2
2.953292769E0,-1.226281166E0,-2.982592583E-1,-1.048851013E-2
2.958292769E0,-1.125412345E0,-3.686199188E-1,-9.800815582E-2
2.963292769E0,-9.798903465E-1,-4.452900887E-1,-2.238340378E-1
2.968292769E0,-7.482819557E-1,-4.896516800E-1,-3.335828781E-1
2.973292769E0,-7.327651978E-2,-6.458482742E-1,-6.695461273E-1
2.978292769E0,5.541896820E-1,-7.338829041E-1,-1.075385571E0
2.983292769E0,7.386437654E-1,-6.792278290E-1,-1.315598965E0
2.988292769E0,4.068893194E-1,-4.701204300E-1,-1.096080780E0
2.993292769E0,1.814883947E-1,-3.561115265E-1,-7.355251312E-1
2.998292769E0,1.076532602E-1,-2.847599983E-1,-4.829072952E-1
3.003292769E0,8.566069603E-2,-2.277574539E-1,-4.623789787E-1
3.008292769E0,4.541623592E-2,-1.687211990E-1,-5.249166489E-1
3.013292769E0,6.593298912E-2,-1.356844902E-1,-5.515375137E-1
3.018292769E0,-5.812048912E-3,-1.031455994E-1,-4.602394104E-1
3.023292769E0,-1.323058605E-1,-8.150863647E-2,-2.831859589E-1
3.028292769E0,-1.718026400E-1,-1.313171387E-1,-1.498880386E-1
3.033292769E0,-1.351042986E-1,-1.856026649E-1,-1.139945984E-1
3.038292769E0,-1.263434887E-1,-2.493925095E-1,-1.336927414E-1
3.043292769E0,-1.253881454E-1,-3.107662201E-1,-1.391839981E-1
3.048292769E0,-1.468738317E-1,-3.553266525E-1,-1.186084747E-1
3.053292769E0,-2.048867941E-1,-3.825039864E-1,-1.138153076E-1
3.058292769E0,-3.172562122E-1,-4.099850655E-1,-5.288124084E-2
3.063292769E0,-4.440082312E-1,-3.928546906E-1,2.144241333E-2
3.068292769E0,-5.428074598E-1,-3.645086288E-1,5.394649506E-2
3.073292769E0,-6.553364992E-1,-3.852162361E-1,3.659057617E-2
3.078292769E0,-7.295315266E-1,-3.770484924E-1,9.444808960E-2
3.083292769E0,-7.140958905E-1,-3.338046074E-1,1.259288788E-1
3.088292769E0,-6.067659855E-1,-3.043813705E-1,1.002569199E-1
3.093292769E0,-4.952149391E-1,-2.800030708E-1,7.623672485E-2
3.098292769E0,-4.162540436E-1,-2.434768677E-1,3.194618225E-2
3.103292769E0,-3.584370613E-1,-2.276816368E-1,-5.976104736E-2
3.108292769E0,-2.748383284E-1,-2.180280685E-1,-2.129526138E-1
3.113292769E0,-2.148560286E-1,-2.266392708E-1,-3.384571075E-1
3.118292769E0,-1.985988617E-1,-2.432141304E-1,-4.101963043E-1
3.123292769E0,-1.852303743E-1,-2.545871735E-1,-4.559984207E-1
3.128292769E0,-1.990036964E-1,-2.570199966E-1,-5.009641647E-1
3.133292769E0,-2.275555134E-1,-2.870054245E-1,-5.259542465E-1
3.138292769E0,-2.644422054E-1,-3.061127663E-1,-5.393447876E-1
3.143292769E0,-2.881697416E-1,-3.273963928E-1,-5.314741135E-1
3.148292769E0,-2.752429247E-1,-3.642196655E-1,-5.225148201E-1
3.153292769E0,-2.616997957E-1,-3.767161369E-1,-5.282640457E-1
3.158292769E0,-2.530807257E-1,-3.998646736E-1,-5.732946396E-1
3.163292769E0,-2.632216215E-1,-3.943333626E-1,-5.712838173E-1
3.168292769E0,-2.703721523E-1,-3.862485886E-1,-5.284662247E-1
3.173292769E0,-2.302840948E-1,-3.764328957E-1,-5.043020248E-1
3.178292769E0,-1.742930412E-1,-3.518862724E-1,-5.096583366E-1
3.183292769E0,-1.723877192E-1,-3.187675476E-1,-5.213356018E-1
3.188292769E0,-2.101469040E-1,-3.046188354E-1,-4.713764191E-1
3.193292769E0,-2.444881201E-1,-2.866797447E-1,-3.855171204E-1
3.198292769E0,-2.675995827E-1,-2.697563171E-1,-3.276214600E-1
3.203292769E0,-2.958867550E-1,-2.421054840E-1,-2.451524734E-1
3.208292769E0,-2.766848803E-1,-1.915779114E-1,-1.769857407E-1
3.213292769E0,-1.224915981E-1,-1.809239388E-1,-1.141519547E-1
3.218292769E0,-2.511447668E-1,-2.650122643E-1,-3.407859802E-2
3.223292769E0,-4.515447617E-1,-2.822837830E-1,8.911132812E-2
3.228292769E0,-4.638879299E-1,-2.851901054E-1,1.537380219E-1
3.233292769E0,-4.039504528E-1,-2.745175362E-1,1.684284210E-1
3.238292769E0,-3.186079264E-1,-2.596521378E-1,1.449012756E-1
3.243292769E0,-2.453347445E-1,-2.537307739E-1,1.172847748E-1
3.248292769E0,-2.128717899E-1,-2.441935539E-1,1.243896484E-1
3.253292769E0,-2.186586857E-1,-2.472047806E-1,1.214494705E-1
3.258292769E0,-1.984739304E-1,-2.297782898E-1,9.461402893E-2
3.263292769E0,-1.758267879E-1,-2.074961662E-1,3.658485413E-2
3.268292769E0,-1.652506590E-1,-1.746048927E-1,-1.461124420E-2
3.273292769E0,-1.646924019E-1,-1.062660217E-1,-6.063079834E-2
3.278292769E0,-1.742960215E-1,-4.027795792E-2,-7.178020477E-2
3.283292769E0,-2.120847702E-1,-1.674461365E-2,-8.031654358E-2
3.288292769E0,-2.189598083E-1,-1.820182800E-2,-9.584426880E-2
3.293292769E0,-1.974095106E-1,-1.413536072E-2,-1.287651062E-1
3.298292769E0,-1.759467125E-1,-3.557491302E-2,-1.662540436E-1
3.303292769E0,-1.699743271E-1,-6.125450134E-2,-2.237339020E-1
3.308292769E0,-1.521192789E-1,-1.017980576E-1,-2.736282349E-1
3.313292769E0,-1.514757872E-1,-1.221618652E-1,-3.267707825E-1
3.318292769E0,-1.270055771E-1,-1.388854980E-1,-3.449897766E-1
3.323292769E0,-1.208529472E-1,-1.444573402E-1,-3.472480774E-1
3.328292769E0,-1.060942411E-1,-1.427855492E-1,-3.451261520E-1
3.333292769E0,-1.202846766E-1,-1.403584480E-1,-3.200216293E-1
3.338292769E0,-8.219110966E-2,-1.353621483E-1,-2.924871445E-1
3.343292769E0,4.818201065E-3,-1.296043396E-1,-2.845382690E-1
3.348292769E0,1.039406061E-1,-1.120347977E-1,-2.687587738E-1
3.353292769E0,1.603453159E-1,-1.008191109E-1,-2.416095734E-1
3.358292769E0,1.886088848E-1,-9.397077560E-2,-1.593132019E-1
3.363292769E0,1.723701954E-1,-7.021236420E-2,-7.856273651E-2
3.368292769E0,1.568658352E-1,-4.260301590E-2,-6.111145020E-3
3.373292769E0,1.631109715E-1,-9.316444397E-3,2.475929260E-2
3.378292769E0,1.875576973E-1,2.745676041E-2,3.680610657E-2
3.383292769E0,2.168390751E-1,3.728580475E-2,2.620029449E-2
3.388292769E0,2.378933430E-1,5.152034760E-2,8.303642273E-3
3.393292769E0,2.100950480E-1,8.074808121E-2,-1.266956329E-2
3.398292769E0,1.497546434E-1,1.012163162E-1,-7.888793945E-3
3.403292769E0,7.963871956E-2,1.362767220E-1,-1.755809784E-2
3.408292769E0,4.770445824E-2,1.532821655E-1,-3.902435303E-3
3.413292769E0,3.787136078E-2,1.657333374E-1,7.724761963E-3
3.418292769E0,3.486335278E-2,1.842503548E-1,1.762771606E-2
3.423292769E0,6.074321270E-2,1.797761917E-1,-1.991271973E-3
3.428292769E0,9.278130531E-2,1.699171066E-1,-1.457595825E-2
3.433292769E0,1.366713047E-1,1.527209282E-1,-2.411556244E-2
3.438292769E0,1.540919542E-1,1.357598305E-1,-4.014682770E-2
3.443292769E0,1.677607298E-1,1.213402748E-1,-3.983688354E-2
3.448292769E0,1.821639538E-1,1.155748367E-1,-1.915359497E-2
3.453292769E0,2.048946619E-1,1.266245842E-1,-6.150245667E-3
3.458292769E0,1.850408316E-1,1.285195351E-1,2.473449707E-2
3.463292769E0,1.471966505E-1,1.448097229E-1,7.811450958E-2
3.468292769E0,1.040717363E-1,1.298241615E-1,1.391029358E-1
3.473292769E0,6.365147829E-1,-5.746359825E-1,-2.872562408E-2
3.478292769E0,8.800796270E-1,-8.941617012E-1,-3.779115677E-1
3.483292769E0,4.810228348E-1,-7.609100342E-1,-3.921270370E-1
3.488292769E0,-1.699813604E-1,-3.464298248E-1,8.197784424E-2
3.493292769E0,-3.583842516E-1,1.642208099E-1,3.038835526E-1
3.498292769E0,-2.359219790E-1,5.469870567E-1,1.702795029E-1
3.503292769E0,-4.402971268E-2,6.977739334E-1,-9.134006500E-2
3.508292769E0,6.584477425E-2,6.845350266E-1,-2.695589066E-1
3.513292769E0,8.575189114E-2,6.452112198E-1,-2.811574936E-1
3.518292769E0,5.663800240E-2,6.273698807E-1,-1.633310318E-1
3.523292769E0,-4.146790504E-2,6.272988319E-1,-1.329612732E-2
3.528292769E0,-1.165360212E-1,6.236877441E-1,1.315927505E-1
3.533292769E0,-1.078771353E-1,5.713686943E-1,2.503299713E-1
3.538292769E0,-9.592533112E-3,5.089859962E-1,3.245344162E-1
3.543292769E0,8.858537674E-2,4.430890083E-1,3.768529892E-1
3.548292769E0,1.603184938E-1,3.548359871E-1,4.591426849E-1
3.553292769E0,1.494218111E-1,2.557315826E-1,5.883970261E-1
3.558292769E0,1.027826071E-1,1.600456238E-1,7.619495392E-1
3.563292769E0,6.607162952E-2,1.102008820E-1,8.926334381E-1
3.568292769E0,9.050071239E-2,8.110952377E-2,9.686174393E-1
3.573292769E0,1.440148354E-1,9.012508392E-2,1.020639420E0
3.578292769E0,1.834120750E-1,1.032261848E-1,1.052233696E0
3.583292769E0,1.883535385E-1,1.414198875E-1,1.061735153E0
3.588292769E0,2.083104849E-1,1.763730049E-1,1.015659332E0
3.593292769E0,2.117494345E-1,2.060213089E-1,9.119920731E-1
3.598292769E0,2.408093214E-1,2.438640594E-1,7.900381088E-1
3.603292769E0,2.576187849E-1,2.708773613E-1,6.766662598E-1
3.608292769E0,2.953236103E-1,2.884974480E-1,5.774602890E-1
3.613292769E0,2.809115648E-1,2.550401688E-1,5.100393295E-1
3.618292769E0,1.860961914E-1,2.112245560E-1,5.255498886E-1
3.623292769E0,7.221198082E-2,1.871547699E-1,5.380573273E-1
3.628292769E0,4.670858383E-2,1.973762512E-1,4.925231934E-1
3.633292769E0,1.053158045E-1,1.649003029E-1,4.892711639E-1
3.638292769E0,4.119813442E-2,1.856923103E-1,4.833297729E-1
3.643292769E0,5.140841007E-2,2.169928551E-1,3.886833191E-1
3.648292769E0,2.298009396E-1,2.213511467E-1,2.758026123E-1
3.653292769E0,3.373669386E-1,2.001385689E-1,2.850942612E-1
3.658292769E0,2.715830803E-1,2.041430473E-1,2.933063507E-1
3.663292769E0,2.452256680E-1,2.235918045E-1,2.628183365E-1
3.668292769E0,3.335965872E-1,1.984868050E-1,2.673482895E-1
3.673292769E0,2.180945873E-1,2.075896263E-1,3.212757111E-1
3.678292769E0,7.955050468E-2,2.337937355E-1,2.741851807E-1
3.683292769E0,4.030942917E-2,2.737550735E-1,1.988372803E-1
3.688292769E0,1.078610420E-1,2.860140800E-1,1.747684479E-1
3.693292769E0,2.369757891E-1,1.488404274E-1,1.998815536E-1
3.698292769E0,1.764205694E-1,4.727315903E-2,2.668380737E-1
3.703292769E0,-1.659142971E-2,4.750776291E-2,2.945060730E-1
3.708292769E0,-9.888899326E-2,8.795022964E-2,3.586673737E-1
3.713292769E0,-4.827713966E-2,1.519718170E-1,4.136638641E-1
3.718292769E0,1.407798529E-1,8.765459061E-2,3.938207626E-1
3.723292769E0,2.077143192E-1,4.565095901E-2,4.404239655E-1
3.728292769E0,1.415425539E-1,1.220583916E-1,3.135433197E-1
3.733292769E0,1.979839802E-1,1.864385605E-1,9.365558624E-2
3.738292769E0,3.122539520E-1,2.204637527E-1,-2.842426300E-2
3.743292769E0,3.379104137E-1,2.123274803E-1,-6.165409088E-2
3.748292769E0,2.856670618E-1,1.754789352E-1,-1.831912994E-2
3.753292769E0,1.881326437E-1,1.342301369E-1,6.172180176E-2
3.758292769E0,6.273281574E-2,7.969284058E-2,1.826076508E-1
3.763292769E0,-8.158600330E-2,2.116203308E-2,3.775091171E-1
3.768292769E0,-4.955065250E-2,-3.929376602E-2,4.817876816E-1
3.773292769E0,1.174024343E-1,-1.797919273E-1,5.153779984E-1
3.778292769E0,3.046658039E-1,-4.831790924E-2,7.054872513E-1
3.783292769E0,4.781051874E-1,8.836412430E-2,7.822437286E-1
3.788292769E0,3.209614754E-1,1.409931183E-1,4.802236557E-1
3.793292769E0,2.759493589E-1,1.260905266E-1,3.174972534E-1
3.798292769E0,1.735699177E-1,7.442331314E-2,3.507795334E-1
3.803292769E0,3.445839882E-2,-1.457691193E-3,3.923063278E-1
3.808292769E0,-7.469987869E-2,-5.456924438E-2,3.923387527E-1
3.813292769E0,-9.384846687E-2,-7.782745361E-2,3.404378891E-1
3.818292769E0,-5.165696144E-2,-4.815292358E-2,2.464275360E-1
3.823292769E0,3.641927242E-2,-4.714012146E-3,1.183633804E-1
3.828292769E0,1.197644472E-1,-4.721164703E-3,-4.907035828E-2
3.833292769E0,1.960886717E-1,-3.695821762E-2,-1.874847412E-1
3.838292769E0,1.940952539E-1,-7.260990143E-2,-2.510757446E-1
3.843292769E0,1.556367874E-1,-1.025285721E-1,-3.202877045E-1
3.848292769E0,1.007094383E-1,-1.394705772E-1,-4.227075577E-1
3.853292769E0,3.044700623E-2,-1.870708466E-1,-4.356765747E-1
3.858292769E0,-3.847813606E-2,-2.020301819E-1,-3.551826477E-1
3.863292769E0,-7.147073746E-2,-1.620283127E-1,-2.892379761E-1
3.868292769E0,-8.576416969E-2,-1.046323776E-1,-2.734727859E-1
3.873292769E0,-4.567611217E-2,-5.408143997E-2,-3.109064102E-1
3.878292769E0,-5.960583687E-3,-4.928302765E-2,-3.268699646E-1
3.883292769E0,2.213275433E-2,-5.387306213E-2,-2.571964264E-1
3.888292769E0,2.629649639E-2,-9.145784378E-2,-2.124490738E-1
3.893292769E0,2.720713615E-3,-1.552190781E-1,-2.001304626E-1
3.898292769E0,-3.785610199E-2,-2.147998810E-1,-1.646232605E-1
3.903292769E0,-5.932879448E-2,-2.424893379E-1,-1.938533783E-1
3.908292769E0,-1.040296555E-1,-2.269549370E-1,-2.304353714E-1
3.913292769E0,-1.498669386E-1,-1.823253632E-1,-3.040723801E-1
3.918292769E0,-1.951875687E-1,-1.486692429E-1,-3.821525574E-1
3.923292769E0,-2.489829063E-1,-1.266198158E-1,-4.524860382E-1
3.928292769E0,-3.532084227E-1,-1.472864151E-1,-3.372592926E-1
3.933292769E0,-4.912630320E-1,-1.456880569E-1,-6.170463562E-2
3.938292769E0,-5.892496109E-1,-1.425647736E-1,1.561403275E-1
3.943292769E0,-5.744659901E-1,-1.170735359E-1,2.190198898E-1
3.948292769E0,-4.624202251E-1,-1.052808762E-1,1.921319962E-1
3.953292769E0,-2.733491659E-1,-5.056858063E-2,1.424083710E-1
3.958292769E0,-7.406282425E-2,2.580642700E-3,7.173728943E-2
3.963292769E0,4.179739952E-2,1.814174652E-2,-3.521728516E-2
3.968292769E0,8.234822750E-2,9.274482727E-3,-1.600408554E-1
3.973292769E0,1.153683662E-1,-3.348875046E-2,-2.499647141E-1
3.978292769E0,1.126735210E-1,-8.077239990E-2,-2.541418076E-1
3.983292769E0,9.964942932E-3,-1.226472855E-1,-1.997289658E-1
3.988292769E0,-7.921707630E-2,-1.622247696E-1,-1.860656738E-1
3.993292769E0,-1.501113176E-1,-1.736340523E-1,-1.982250214E-1
3.998292769E0,-1.542685032E-1,-2.029447556E-1,-2.259778976E-1
4.003292769E0,-1.313670874E-1,-2.408914566E-1,-1.764106750E-1
4.008292769E0,-8.703899384E-2,-2.295002937E-1,-5.226612091E-2
4.013292769E0,-2.798676491E-2,-2.307419777E-1,-3.525257111E-2
4.018292769E0,9.233236313E-3,-2.330169678E-1,-6.876754761E-2
4.023292769E0,6.150555611E-2,-2.359790802E-1,-1.260471344E-1
4.028292769E0,1.041312218E-1,-2.119088173E-1,-1.891450882E-1
4.033292769E0,1.571274996E-1,-1.388740540E-1,-2.836017609E-1
4.038292769E0,1.904985905E-1,-9.512853622E-2,-3.784084320E-1
4.043292769E0,1.719856262E-1,-6.264638901E-2,-4.359588623E-1
4.048292769E0,1.041542292E-1,-1.053285599E-2,-4.503498077E-1
4.053292769E0,1.738893986E-2,2.696704865E-2,-4.677410126E-1
4.058292769E0,3.319323063E-2,1.295709610E-2,-4.901275635E-1
4.063292769E0,1.138443947E-1,-1.357269287E-2,-4.369812012E-1
4.068292769E0,4.382369518E-1,-2.884864807E-2,-2.154874802E-1
4.073292769E0,7.197427750E-2,-7.321453094E-2,-2.007312775E-1
4.078292769E0,-1.555650830E-1,-1.510028839E-1,-1.638689041E-1
4.083292769E0,-2.091352344E-1,-2.361421585E-1,-9.842967987E-2
4.088292769E0,-1.340683103E-1,-2.794027328E-1,-4.101276398E-2
4.093292769E0,-2.257497907E-1,6.742572784E-2,1.529026031E-2
4.098292769E0,-2.818446755E-1,1.579194069E-1,-2.182674408E-2
4.103292769E0,-2.597409487E-2,-1.437373161E-1,-3.704166412E-2
4.108292769E0,2.531597018E-1,-3.867359161E-1,3.844070435E-2
4.113292769E0,2.721682787E-1,-5.357213020E-1,1.775093079E-1
4.118292769E0,1.093698144E-1,-4.948596954E-1,2.721176147E-1
4.123292769E0,-2.309994102E-1,-2.618312836E-1,2.091112137E-1
4.128292769E0,-2.360465527E-1,-3.364987373E-1,1.313505173E-1
4.133292769E0,-1.051063538E-1,-3.420391083E-1,2.546405792E-2
4.138292769E0,-8.481025696E-2,-3.544249535E-1,-7.540988922E-2
4.143292769E0,-4.520589113E-2,-4.210128784E-1,-1.410903931E-1
4.148292769E0,6.756567955E-2,-4.629120827E-1,-1.151113510E-1
4.153292769E0,9.007203579E-2,-4.751949310E-1,-5.696868896E-2
4.158292769E0,-3.444373608E-2,-4.653806686E-1,4.559516907E-3
4.163292769E0,-1.172502637E-1,-3.719758987E-1,-3.072261810E-2
4.168292769E0,-2.556558847E-1,-2.515015602E-1,-1.952924728E-1
4.173292769E0,-2.465736270E-1,-2.548780441E-1,-3.700866699E-1
4.178292769E0,1.544201970E-1,-5.943078995E-1,-4.789586067E-1
4.183292769E0,2.348598838E-1,-8.596510887E-1,-2.975740433E-1
4.188292769E0,-4.880669117E-1,-2.995295525E-1,-2.581248283E-1
4.193292769E0,-6.518986821E-1,-4.443764687E-1,-1.094045639E-1
4.198292769E0,-5.156822205E-1,-5.055766106E-1,-1.149730682E-1
4.203292769E0,-4.762826860E-1,-1.521534920E-1,-8.205413818E-2
4.208292769E0,-4.289541841E-1,1.056089401E-1,-4.078006744E-2
4.213292769E0,-1.507521868E-1,9.928750992E-2,-5.407333374E-4
4.218292769E0,4.665988684E-2,5.405664444E-2,4.232978821E-2
4.223292769E0,2.212510705E-1,1.425709724E-1,6.665039062E-2
4.228292769E0,1.771147847E-1,5.728578568E-2,1.579160690E-1
4.233292769E0,9.252876043E-2,-9.484052658E-2,2.848873138E-1
4.238292769E0,-1.826131344E-2,-1.050662994E-1,3.310551643E-1
4.243292769E0,4.989761114E-2,-1.907911301E-1,2.820730209E-1
4.248292769E0,5.954259634E-2,-2.715792656E-1,2.256026268E-1
4.253292769E0,1.747000217E-2,-2.358779907E-1,2.371573448E-1
4.258292769E0,6.481653452E-2,-1.717324257E-1,2.262721062E-1
4.263292769E0,1.646654010E-1,-2.604660988E-1,2.295241356E-1
4.268292769E0,1.214779019E-1,-3.081665039E-1,1.735248566E-1
4.273292769E0,1.623896956E-1,-2.357091904E-1,9.859514236E-2
4.278292769E0,8.745676279E-2,-1.693601608E-1,9.142351151E-2
4.283292769E0,-5.167442560E-2,-1.533474922E-1,1.102533340E-1
4.288292769E0,-6.717371941E-2,-1.608152390E-1,7.343816757E-2
4.293292769E0,-1.374986768E-1,-1.532912254E-1,7.470607758E-3
4.298292769E0,-2.403426766E-1,4.106140137E-2,-8.325386047E-2
4.303292769E0,-4.672024250E-1,6.318521500E-2,-1.076021194E-1
4.308292769E0,-4.769305587E-1,-1.437520981E-2,-3.161029816E-1
4.313292769E0,-3.965225220E-1,-4.565906525E-2,-5.184569359E-1
4.318292769E0,-3.723910451E-1,-2.621173859E-3,-6.713786125E-1
4.323292769E0,-4.609876871E-1,1.590299606E-1,-7.478537560E-1
4.328292769E0,-4.046972990E-1,1.393394470E-1,-7.892770767E-1
4.333292769E0,-4.079328775E-1,7.709980011E-3,-8.341422081E-1
4.338292769E0,-3.174572587E-1,-5.800771713E-2,-8.735094070E-1
4.343292769E0,-4.096258879E-1,-1.157903671E-2,-8.741536140E-1
4.348292769E0,-4.665628672E-1,2.589702606E-2,-9.006018639E-1
4.353292769E0,-4.880594611E-1,1.303281784E-1,-9.473981857E-1
4.358292769E0,-4.683070183E-1,2.255234718E-1,-1.037237167E0
4.363292769E0,-4.363773465E-1,3.010268211E-1,-1.125047684E0
4.368292769E0,-4.132544994E-1,3.270258904E-1,-1.247692108E0
4.373292769E0,-4.117311239E-1,3.077526093E-1,-1.363160610E0
4.378292769E0,-4.139068723E-1,2.609467506E-1,-1.488221645E0
4.383292769E0,-4.381944537E-1,2.503833771E-1,-1.538095951E0
4.388292769E0,-4.887667894E-1,2.688078880E-1,-1.505766392E0
4.393292769E0,-5.199625492E-1,2.857637405E-1,-1.413844109E0
4.398292769E0,-5.063753128E-1,3.085622787E-1,-1.285874844E0
4.403292769E0,-4.322117567E-1,3.157482147E-1,-1.133223057E0
4.408292769E0,-3.432769179E-1,3.325300217E-1,-9.063777924E-1
4.413292769E0,-2.386116982E-1,3.214879036E-1,-5.852117538E-1
4.418292769E0,-1.461676359E-1,3.056759834E-1,-3.111948967E-1
4.423292769E0,-1.508107781E-1,3.968353271E-1,-4.259634018E-2
4.428292769E0,-8.788806200E-2,3.959517479E-1,1.569933891E-1
4.433292769E0,-5.167579651E-2,3.368158340E-1,2.873330116E-1
4.438292769E0,2.304112911E-2,1.182575226E-1,3.402547836E-1
4.443292769E0,2.171349525E-1,6.809234619E-3,3.784770966E-1
4.448292769E0,3.232972622E-1,-1.557397842E-2,4.347405434E-1
4.453292769E0,2.864605188E-1,-4.146146774E-2,5.102610588E-1
4.458292769E0,2.318083048E-1,-7.711648941E-2,5.236411095E-1
4.463292769E0,2.438836098E-1,-8.535337448E-2,4.950795174E-1
4.468292769E0,2.549890280E-1,-5.062484741E-2,4.724755287E-1
4.473292769E0,2.157149315E-1,-4.443168640E-3,4.300942421E-1
4.478292769E0,1.639184952E-1,5.669450760E-2,3.627495766E-1
4.483292769E0,1.183078289E-1,9.737968445E-2,3.265347481E-1
4.488292769E0,6.428945065E-2,1.478815079E-1,2.656722069E-1
4.493292769E0,3.798389435E-2,1.998019218E-1,1.552138329E-1
4.498292769E0,5.460369587E-2,2.251539230E-1,5.620718002E-2
4.503292769E0,7.448291779E-2,2.192010880E-1,-3.543424606E-2
4.508292769E0,4.541015625E-2,2.065992355E-1,-1.029987335E-1
4.513292769E0,3.991603851E-3,1.738801003E-1,-1.574010849E-1
4.518292769E0,-1.870810986E-2,1.619148254E-1,-2.033219337E-1
4.523292769E0,-2.668118477E-2,1.697459221E-1,-1.572189331E-1
4.528292769E0,-2.216559649E-2,1.974239349E-1,-5.973863602E-2
4.533292769E0,-9.542703629E-3,2.279090881E-1,4.588270187E-2
4.538292769E0,7.745683193E-3,2.406921387E-1,1.507854462E-1
4.543292769E0,2.133846283E-2,2.358818054E-1,2.077665329E-1
4.548292769E0,5.018675327E-2,2.478985786E-1,2.477798462E-1
4.553292769E0,1.214739680E-1,2.456393242E-1,2.542901039E-1
4.558292769E0,2.086397409E-1,2.095093727E-1,2.745728493E-1
4.563292769E0,1.584309936E-1,1.687173843E-1,3.101449013E-1
4.568292769E0,1.407681108E-1,1.635341644E-1,3.182086945E-1
4.573292769E0,1.576890945E-1,2.154579163E-1,2.893786430E-1
4.578292769E0,1.192072630E-1,2.618722916E-1,2.818698883E-1
4.583292769E0,7.749080658E-2,2.912383080E-1,2.635502815E-1
4.588292769E0,5.149894953E-2,2.937345505E-1,2.040734291E-1
4.593292769E0,3.341102600E-2,2.998828888E-1,1.518430710E-1
4.598292769E0,-9.509384632E-3,3.146033287E-1,1.113986969E-1
4.603292769E0,-4.711961746E-2,3.407530785E-1,6.510448456E-2
4.608292769E0,-6.995725632E-2,3.689694405E-1,-7.135391235E-3
4.613292769E0,-7.624471188E-2,3.797616959E-1,-6.707286835E-2
4.618292769E0,-8.828479052E-2,3.799023628E-1,-1.347827911E-1
4.623292769E0,2.086499929E-1,3.157124519E-1,-1.826004982E-1
4.628292769E0,1.195539832E-1,1.088471413E-1,-1.964559555E-1
4.633292769E0,-3.749195337E-1,5.178499222E-2,-2.194724083E-1
4.638292769E0,-3.299369812E-1,1.189894676E-1,-2.950253487E-1
4.643292769E0,-1.909704804E-1,2.586841583E-1,-3.814430237E-1
4.648292769E0,-2.220251560E-1,3.312225342E-1,-3.493628502E-1
4.653292769E0,-2.691327333E-1,3.369374275E-1,-2.585501671E-1
4.658292769E0,-1.200817823E-1,3.056240082E-1,-1.911973953E-1
4.663292769E0,-8.162987232E-2,1.718955040E-1,-9.952926636E-2
4.668292769E0,-3.065012693E-1,1.272473335E-1,-2.424526215E-2
4.673292769E0,-2.196564078E-1,1.950340271E-1,2.887058258E-2
4.678292769E0,-5.575418472E-2,3.013763428E-1,6.663131714E-2
4.683292769E0,-4.524958134E-2,3.516492844E-1,1.030979156E-1
4.688292769E0,-4.486429691E-2,3.374214172E-1,1.346774101E-1
4.693292769E0,-1.497268677E-4,2.970895767E-1,1.336135864E-1
4.698292769E0,7.980549335E-2,2.849159241E-1,1.435236931E-1
4.703292769E0,1.323096752E-1,2.593054771E-1,1.823115349E-1
4.708292769E0,1.453613043E-1,2.468390465E-1,2.174630165E-1
4.713292769E0,1.061136723E-1,2.167782784E-1,2.356038094E-1
4.718292769E0,-4.213142395E-2,1.293783188E-1,1.083726883E-1
4.723292769E0,-1.931502819E-1,4.487514496E-3,-7.883358002E-2
4.728292769E0,-4.394054413E-4,1.374101639E-2,1.045479774E-1
4.733292769E0,2.806031704E-2,8.071184158E-2,3.328452110E-1
4.738292769E0,-2.937161922E-2,1.466126442E-1,4.827346802E-1
4.743292769E0,-2.417325974E-2,1.759705544E-1,4.964771271E-1
4.748292769E0,4.012548923E-2,1.903748512E-1,4.176044464E-1
4.753292769E0,1.119499207E-1,2.142686844E-1,3.103213310E-1
4.758292769E0,1.520700455E-1,2.331967354E-1,2.285065651E-1
4.763292769E0,1.674368382E-1,2.384829521E-1,1.284584999E-1
4.768292769E0,1.568617821E-1,1.912422180E-1,4.299640656E-3
4.773292769E0,7.508432865E-2,1.247429848E-1,-8.343458176E-2
4.778292769E0,-2.753555775E-2,5.176687241E-2,-1.798019409E-1
4.783292769E0,-1.103464365E-1,-7.498741150E-3,-2.817473412E-1
4.788292769E0,-1.528947353E-1,-4.230880737E-2,-3.942575455E-1
4.793292769E0,-1.937400103E-1,-4.470157623E-2,-4.787931442E-1
4.798292769E0,-1.959193945E-1,-2.824878693E-2,-4.740991592E-1
4.803292769E0,-1.391581297E-1,8.808612823E-3,-3.503146172E-1
4.808292769E0,1.999640465E-2,4.491329193E-2,-1.000180244E-1
4.813292769E0,5.531764030E-2,3.757095337E-2,1.126146317E-2
4.818292769E0,5.976045132E-2,-2.588987350E-2,-1.965427399E-2
4.823292769E0,1.538114548E-1,-1.131553650E-1,-1.099057198E-1
4.828292769E0,2.381165028E-1,-1.818203926E-1,-1.504526138E-1
4.833292769E0,2.518724203E-1,-1.833791733E-1,-1.497573853E-1
4.838292769E0,1.960011721E-1,-1.693840027E-1,-3.048419952E-2
4.843292769E0,5.739307404E-2,-1.180906296E-1,1.842160225E-1
4.848292769E0,-4.267406464E-2,-6.103229523E-2,3.538260460E-1
4.853292769E0,-7.913994789E-2,-7.886409760E-3,3.989691734E-1
4.858292769E0,-1.000441313E-1,4.463911057E-2,3.217759132E-1
4.863292769E0,-1.582251787E-1,1.141753197E-1,1.588125229E-1
4.868292769E0,-5.691254139E-2,1.277518272E-1,1.054949760E-1
4.873292769E0,-1.317584515E-2,1.070213318E-1,1.264042854E-1
4.878292769E0,-2.311122417E-2,8.726692200E-2,2.112150192E-1
4.883292769E0,-2.266037464E-2,2.731704712E-2,2.725687027E-1
4.888292769E0,2.538764477E-2,-4.292488098E-2,3.422212601E-1
4.893292769E0,7.212615013E-2,-1.329898834E-1,3.893141747E-1
4.898292769E0,1.360939741E-1,-2.221598625E-1,4.209094048E-1
4.903292769E0,1.703346968E-1,-3.310065269E-1,4.741249084E-1
4.908292769E0,1.406562328E-1,-4.118180275E-1,5.159158707E-1
4.913292769E0,7.288432121E-2,-4.745855331E-1,5.146002769E-1
4.918292769E0,-3.888607025E-3,-4.946250916E-1,5.005712509E-1
4.923292769E0,-5.774974823E-2,-4.532337189E-1,4.633626938E-1
4.928292769E0,-1.127319336E-1,-3.866896629E-1,4.097366333E-1
4.933292769E0,-1.863248348E-1,-3.172807693E-1,3.418521881E-1
4.938292769E0,-3.009378910E-1,-2.627630234E-1,2.307567596E-1
4.943292769E0,-3.763945103E-1,-1.985187531E-1,4.872322083E-2
4.948292769E0,-4.170626402E-1,-1.339316368E-1,-1.441426277E-1
4.953292769E0,-4.455180168E-1,-4.327011108E-2,-3.325910568E-1
4.958292769E0,-4.596353769E-1,1.766681671E-2,-5.227599144E-1
4.963292769E0,-4.555022717E-1,7.191658020E-2,-6.977100372E-1
4.968292769E0,-4.231631756E-1,1.275887489E-1,-8.084659576E-1
4.973292769E0,-3.621090651E-1,1.526236534E-1,-8.963565826E-1
4.978292769E0,-2.962727547E-1,1.330385208E-1,-9.154696465E-1
4.983292769E0,-2.428447008E-1,1.217103004E-1,-8.509292603E-1
4.988292769E0,-2.008994818E-1,8.396720886E-2,-7.303681374E-1
4.993292769E0,-1.855162382E-1,5.533313751E-2,-6.118831635E-1
4.998292769E0,-1.584858894E-1,4.439783096E-2,-5.132741928E-1
5.003292769E0,-9.981977940E-2,2.644014359E-2,-4.612669945E-1
5.008292769E0,4.559278488E-3,1.384735107E-2,-3.953719139E-1
5.013292769E0,1.130586863E-1,-1.677751541E-2,-3.572483063E-1
5.018292769E0,2.259757519E-1,-2.613735199E-2,-2.993259430E-1
5.023292769E0,3.196573257E-1,-4.464483261E-2,-2.832098007E-1
5.028292769E0,4.154057503E-1,-4.709720612E-2,-2.634539604E-1
5.033292769E0,4.425827265E-1,-4.528665543E-2,-2.307319641E-1
5.038292769E0,-1.604342461E-1,-3.025546074E-1,2.018690109E-1
5.043292769E0,-1.239729404E0,-5.968270302E-1,9.011564255E-1
5.048292769E0,-9.799487591E-1,-6.170177460E-1,7.293367386E-1
5.053292769E0,-4.294068813E-1,-5.596380234E-1,5.872573853E-1
5.058292769E0,-4.310321808E-2,-4.458293915E-1,5.350589752E-1
5.063292769E0,2.175648212E-1,-2.692360878E-1,5.576734543E-1
5.068292769E0,3.681551218E-1,-9.463310242E-2,5.493984222E-1
5.073292769E0,4.408107996E-1,3.721761703E-2,5.222196579E-1
5.078292769E0,4.138309956E-1,1.096868515E-1,4.805288315E-1
5.083292769E0,3.312455416E-1,1.321649551E-1,4.304847717E-1
5.088292769E0,2.216073275E-1,1.503438950E-1,3.732519150E-1
5.093292769E0,1.039085388E-1,1.482601166E-1,3.490304947E-1
5.098292769E0,3.002917767E-2,9.314203262E-2,3.395414352E-1
5.103292769E0,-3.375649452E-3,1.052942276E-1,3.491792679E-1
5.108292769E0,-8.321452141E-2,1.333136559E-1,3.303852081E-1
5.113292769E0,-8.675956726E-2,1.519613266E-1,2.813510895E-1
5.118292769E0,-8.362853527E-2,1.811046600E-1,2.203330994E-1
5.123292769E0,-1.140691042E-1,2.210669518E-1,1.699781418E-1
5.128292769E0,-1.427332163E-1,2.357997894E-1,1.392869949E-1
5.133292769E0,-1.638495922E-1,2.197289467E-1,8.566188812E-2
5.138292769E0,-1.615841389E-1,1.757302284E-1,-2.076148987E-3
5.143292769E0,-1.829788685E-1,1.128783226E-1,-7.555198669E-2
5.148292769E0,-2.302151918E-1,3.946781158E-2,-1.305408478E-1
5.153292769E0,-2.544687986E-1,-2.287769318E-2,-2.038173676E-1
5.158292769E0,-2.493227720E-1,-8.554220200E-2,-2.779970169E-1
5.163292769E0,-2.719353437E-1,-1.724219322E-1,-3.276500702E-1
5.168292769E0,1.676177979E-2,-4.324865341E-2,-4.102077484E-1
5.173292769E0,2.268674374E-1,1.205377579E-1,-4.174404144E-1
5.178292769E0,5.476915836E-2,1.989841461E-3,-2.428951263E-1
5.183292769E0,4.110670090E-2,-2.017498016E-2,-1.783695221E-1
5.188292769E0,2.433645725E-2,2.353668213E-2,-2.053041458E-1
5.193292769E0,-1.056553125E-1,-4.177570343E-2,-8.703613281E-2
5.198292769E0,-1.537233591E-1,-1.209330559E-1,2.908802032E-2
5.203292769E0,-1.631345749E-1,-1.369948387E-1,7.639503479E-2
5.208292769E0,-1.623758078E-1,-1.729569435E-1,9.373664856E-2
5.213292769E0,-1.590769291E-1,-1.839108467E-1,1.178569794E-1
5.218292769E0,-1.502617598E-1,-1.882381439E-1,1.306457520E-1
5.223292769E0,-1.664112806E-1,-1.880650520E-1,1.484937668E-1
5.228292769E0,-1.513044834E-1,-1.248345375E-1,1.178627014E-1
5.233292769E0,-1.653631926E-1,-8.478689194E-2,9.986686707E-2
5.238292769E0,-1.521092653E-1,-3.339195251E-2,5.199813843E-2
5.243292769E0,-1.312434673E-1,1.731777191E-2,-2.378082275E-2
5.248292769E0,-1.319802999E-1,5.111312866E-2,-6.332111359E-2
5.253292769E0,-1.347543001E-1,9.309911728E-2,-8.704853058E-2
5.258292769E0,-9.060311317E-2,1.179189682E-1,-9.916305542E-2
5.263292769E0,1.491012573E-1,6.727361679E-2,9.006500244E-3
5.268292769E0,5.732177496E-1,-2.728414536E-2,2.501382828E-1
5.273292769E0,9.756810665E-1,-7.174968719E-2,4.824218750E-1
5.278292769E0,1.007585645E0,6.542539597E-2,5.408668518E-1
5.283292769E0,6.885224581E-1,2.513170242E-1,4.520864487E-1
5.288292769E0,3.829398155E-1,3.925724030E-1,3.824625015E-1
5.293292769E0,2.168539762E-1,4.550204277E-1,2.890071869E-1
5.298292769E0,1.056084633E-1,4.815678596E-1,1.979808807E-1
5.303292769E0,7.703578472E-2,4.807991982E-1,8.892154694E-2
5.308292769E0,9.181654453E-2,4.498867989E-1,-2.870941162E-2
5.313292769E0,1.501274109E-1,4.204473495E-1,-9.822368622E-2
5.318292769E0,2.226208448E-1,3.766674995E-1,-1.293544769E-1
5.323292769E0,3.041535616E-1,3.475265503E-1,-1.740169525E-1
5.328292769E0,3.634054661E-1,3.161945343E-1,-1.971693039E-1
5.333292769E0,3.219181299E-1,2.785840034E-1,-1.930551529E-1
5.338292769E0,2.826119661E-1,2.499380112E-1,-1.503047943E-1
5.343292769E0,2.792713642E-1,2.230615616E-1,-1.104240417E-1
5.348292769E0,2.416987419E-1,2.187485695E-1,-6.482601166E-2
5.353292769E0,1.760138273E-1,2.675499916E-1,-3.453063965E-2
5.358292769E0,1.154829264E-1,3.023080826E-1,-2.397537231E-3
5.363292769E0,1.140638590E-1,2.898979187E-1,1.095199585E-2
5.368292769E0,1.638995409E-1,2.707238197E-1,-1.842689514E-2
5.373292769E0,1.898139715E-1,2.114634514E-1,-3.810977936E-2
5.378292769E0,1.813212633E-1,1.412329674E-1,-2.352714539E-2
5.383292769E0,1.292331219E-1,9.156703949E-2,9.746551514E-3
5.388292769E0,5.394220352E-2,6.767129898E-2,5.890464783E-2
5.393292769E0,-2.011370659E-2,1.959943771E-2,1.139755249E-1
5.398292769E0,-5.047500134E-2,-3.799343109E-2,1.469202042E-1
5.403292769E0,-6.344771385E-2,-9.921836853E-2,1.614379883E-1
5.408292769E0,-1.088569164E-1,-1.167941093E-1,1.340713501E-1
5.413292769E0,-1.808704138E-1,-1.177396774E-1,1.453437805E-1
5.418292769E0,-2.692996264E-1,-1.054577827E-1,1.640605927E-1
5.423292769E0,-3.550382853E-1,-9.515810013E-2,1.530742645E-1
5.428292769E0,-2.975366116E-1,-1.078200340E-1,8.028125763E-2
5.433292769E0,-2.064169645E-1,-1.756334305E-1,-1.686468124E-1
5.438292769E0,1.082628965E-1,-9.037685394E-2,-6.807422638E-2
5.443292769E0,1.625027657E-1,4.361820221E-2,-1.398897171E-1
5.448292769E0,2.595741749E-1,2.322258949E-1,-1.558799744E-1
5.453292769E0,3.102639914E-1,3.165302277E-1,-1.625318527E-1
5.458292769E0,3.270878792E-1,3.164029121E-1,-1.635894775E-1
5.463292769E0,3.395366669E-1,2.889590263E-1,-1.381301880E-1
5.468292769E0,3.555436134E-1,2.609200478E-1,-1.355123520E-1
5.473292769E0,3.533236980E-1,2.448611259E-1,-1.408548355E-1
5.478292769E0,2.902730703E-1,2.110137939E-1,-1.369142532E-1
5.483292769E0,1.280841827E-1,1.863908768E-1,-4.379081726E-2
5.488292769E0,-4.796564579E-2,1.560387611E-1,9.898471832E-2
5.493292769E0,-2.813594341E-1,9.564590454E-2,1.044025421E-1
5.498292769E0,-5.381017923E-1,4.171895981E-2,-6.411457062E-2
5.503292769E0,-4.432373047E-1,7.013082504E-2,2.648916245E-1
5.508292769E0,-3.570321798E-1,9.494018555E-2,4.574689865E-1
5.513292769E0,-3.338832855E-1,1.119370461E-1,3.569564819E-1
5.518292769E0,-2.362360954E-1,1.053295135E-1,3.683681488E-1
5.523292769E0,-1.426577568E-1,1.049509048E-1,4.501247406E-1
5.528292769E0,-8.817291260E-2,8.096027374E-2,4.605779648E-1
5.533292769E0,-1.107432842E-1,5.434608459E-2,4.048624039E-1
5.538292769E0,-1.448857784E-1,2.015113831E-2,3.020229340E-1
5.543292769E0,-1.927576065E-1,-1.378297806E-2,1.834650040E-1
5.548292769E0,-2.274839878E-1,-4.139423370E-2,7.670497894E-2
5.553292769E0,-2.303159237E-1,-4.913187027E-2,1.287841797E-2
5.558292769E0,-2.169268131E-1,-3.151893616E-2,-5.938720703E-2
5.563292769E0,-2.083706856E-1,-7.748126984E-3,-1.260013580E-1
5.568292769E0,-2.130262852E-1,2.910757065E-2,-1.879520416E-1
5.573292769E0,-2.201125622E-1,6.946563721E-2,-1.745381355E-1
5.578292769E0,-2.200107574E-1,1.090178490E-1,-1.152858734E-1
5.583292769E0,-2.454938889E-1,1.292057037E-1,-8.028316498E-2
5.588292769E0,-2.668652534E-1,1.258459091E-1,-1.334419250E-1
5.593292769E0,-2.881336212E-1,9.878492355E-2,-2.190723419E-1
5.598292769E0,-2.311353683E-1,9.742355347E-2,-2.681789398E-1
5.603292769E0,-1.329476833E-1,2.407674789E-1,-3.109450340E-1
5.608292769E0,-6.696462631E-2,-2.354621887E-3,-3.834629059E-1
5.613292769E0,-5.712938309E-2,-3.430843353E-3,-3.523645401E-1
5.618292769E0,-8.437657356E-2,-1.374673843E-2,-2.969846725E-1
5.623292769E0,-4.733467102E-2,-1.211118698E-2,-2.038540840E-1
5.628292769E0,-1.556301117E-2,-1.539754868E-2,-2.585601807E-2
5.633292769E0,-4.672050476E-2,-2.364206314E-2,1.033477783E-1
5.638292769E0,-1.026327610E-1,-9.085226059E-2,1.317825317E-1
5.643292769E0,-2.102887630E-1,-1.275434494E-1,1.070146561E-1
5.648292769E0,-2.517263889E-1,-8.378028870E-2,3.253936768E-2
5.653292769E0,-2.864968777E-1,-2.685933113E-1,-5.972862244E-3
5.658292769E0,-3.628497124E-1,-3.031802177E-1,-5.104064941E-3
5.663292769E0,-3.649606705E-1,-2.641849518E-1,-1.757049561E-2
5.668292769E0,-3.003184795E-1,-2.692837715E-1,-8.616924286E-2
5.673292769E0,-2.580025196E-1,-3.273949623E-1,-1.541194916E-1
5.678292769E0,-2.694282532E-1,-2.351374626E-1,-1.997489929E-1
5.683292769E0,-2.536265850E-1,-1.733827591E-1,-3.134708405E-1
5.688292769E0,-2.792868614E-1,-1.221814156E-1,-4.705452919E-1
5.693292769E0,-2.933678627E-1,-3.481292725E-2,-6.042723656E-1
5.698292769E0,-4.402923584E-1,5.069541931E-2,-8.411560059E-1
5.703292769E0,-4.466443062E-1,1.464538574E-1,-9.502940178E-1
5.708292769E0,-3.311560154E-1,2.097091675E-1,-8.962721825E-1
5.713292769E0,-2.236239910E-1,2.369041443E-1,-8.629879951E-1
5.718292769E0,-7.308316231E-2,2.480792999E-1,-7.324781418E-1
5.723292769E0,8.279633522E-2,1.966571808E-1,-5.246315002E-1
5.728292769E0,1.885426044E-1,1.078586578E-1,-3.145647049E-1
5.733292769E0,2.135198116E-1,1.459550858E-2,-1.528558731E-1
5.738292769E0,2.281863689E-1,-1.305389404E-2,-3.396797180E-2
5.743292769E0,2.514276505E-1,-1.536798477E-2,4.113197327E-2
5.748292769E0,2.209727764E-1,6.047248840E-3,1.535081863E-1
5.753292769E0,1.802024841E-1,4.758739471E-2,2.391595840E-1
5.758292769E0,1.147699356E-1,6.440401077E-2,3.217630386E-1
5.763292769E0,5.302667618E-2,9.870910645E-2,3.763513565E-1
5.768292769E0,-1.490640640E-2,8.007192612E-2,3.918037415E-1
5.773292769E0,-5.793476105E-2,8.609676361E-2,4.153585434E-1
5.778292769E0,-1.021220684E-1,6.958484650E-2,4.517784119E-1
5.783292769E0,-1.853599548E-1,4.535818100E-2,5.394887924E-1
5.788292769E0,-2.434098721E-1,-2.637386322E-2,6.187887192E-1
5.793292769E0,-2.474339008E-1,-6.954479218E-2,6.935272217E-1
5.798292769E0,-1.753234863E-1,-9.492301941E-2,7.083683014E-1
5.803292769E0,-3.294587135E-2,-7.554340363E-2,7.099494934E-1
5.808292769E0,1.441073418E-1,-2.092838287E-2,6.851348877E-1
5.813292769E0,3.185007572E-1,1.609992981E-2,6.602659225E-1
5.818292769E0,4.377214909E-1,4.830026627E-2,6.180009842E-1
5.823292769E0,4.783453941E-1,5.581092834E-2,5.608596802E-1
5.828292769E0,1.522802114E-1,1.141123772E-1,4.715623856E-1
5.833292769E0,-2.467994690E-1,1.662912369E-1,4.308395386E-1
5.838292769E0,-1.232855320E-1,1.545138359E-1,4.785575867E-1
5.843292769E0,2.014560699E-1,9.852647781E-2,4.692821503E-1
5.848292769E0,4.327875376E-1,2.742052078E-2,4.636440277E-1
5.853292769E0,5.087496042E-1,9.373188019E-3,3.185720444E-1
5.858292769E0,4.674843550E-1,-8.327484131E-3,1.044950485E-1
5.863292769E0,2.632203102E-1,1.851272583E-2,-1.650390625E-1
5.868292769E0,8.359253407E-2,5.757522583E-2,-3.703746796E-1
5.873292769E0,-5.551540852E-2,1.373949051E-1,-4.937992096E-1
5.878292769E0,-1.350802183E-1,2.581405640E-1,-5.241537094E-1
5.883292769E0,-1.483809948E-1,2.222118378E-1,-4.903745651E-1
5.888292769E0,-1.840810776E-1,6.314802170E-2,-4.160289764E-1
5.893292769E0,-1.784025431E-1,-2.565383911E-3,-3.520927429E-1
5.898292769E0,-9.786915779E-2,-6.811904907E-2,-2.975263596E-1
5.903292769E0,-4.678010941E-3,-1.337652206E-1,-2.061767578E-1
5.908292769E0,3.340542316E-2,-1.361603737E-1,-1.174793243E-1
5.913292769E0,2.499139309E-2,-1.647076607E-1,-4.349327087E-2
5.918292769E0,4.931294918E-2,-1.886444092E-1,-1.433563232E-2
5.923292769E0,1.283413172E-1,-2.213530540E-1,-4.799652100E-2
5.928292769E0,1.924418211E-1,-2.324433327E-1,-7.487964630E-2
5.933292769E0,2.618408203E-1,-1.522450447E-1,-6.916332245E-2
5.938292769E0,3.617753983E-1,-1.141309738E-2,-5.686759949E-2
5.943292769E0,3.519927263E-1,-1.969060898E-1,-9.255599976E-2
5.948292769E0,3.214473724E-1,-2.162947655E-1,-1.640243530E-1
5.953292769E0,4.038907290E-1,-1.618280411E-1,-2.655992508E-1
5.958292769E0,5.361038446E-1,2.020788193E-2,-2.886238098E-1
5.963292769E0,4.979958534E-1,3.328609467E-2,-2.521619797E-1
5.968292769E0,3.240664005E-1,-5.360126495E-3,-1.686763763E-1
5.973292769E0,2.135617733E-1,-2.866125107E-2,-6.520271301E-2
5.978292769E0,2.864159346E-1,-8.999919891E-2,1.005954742E-1
5.983292769E0,4.584060907E-1,-4.961776733E-2,1.204700470E-1
5.988292769E0,3.648914099E-1,5.861663818E-2,-4.864501953E-2
5.993292769E0,1.774172783E-1,2.459154129E-1,-1.425580978E-1
5.998292769E0,6.607341766E-2,2.864017487E-1,-1.000909805E-1
6.003292769E0,6.046938896E-2,2.241773605E-1,-6.109237671E-3
6.008292769E0,1.136751175E-1,1.799497604E-1,2.609825134E-2
6.013292769E0,2.080938816E-1,1.674013138E-1,2.387046814E-3
6.018292769E0,2.303789854E-1,1.079473495E-1,-2.531051636E-2
6.023292769E0,2.006585598E-1,4.977560043E-2,-3.865242004E-2
6.028292769E0,1.510537863E-1,3.696632385E-2,-6.874179840E-2
6.033292769E0,1.932296753E-1,1.624317169E-1,-7.908058167E-2
6.038292769E0,1.685521603E-1,1.008000374E-1,-6.493377686E-2
6.043292769E0,9.010171890E-2,-3.560733795E-2,-5.100154877E-2
6.048292769E0,6.248211861E-2,-5.968475342E-2,-3.605937958E-2
6.053292769E0,1.041651964E-1,-6.267118454E-2,-4.145240784E-2
6.058292769E0,1.876403093E-1,3.639078140E-2,-5.245208740E-5
6.063292769E0,1.844112873E-1,1.583528519E-2,1.573696136E-1
6.068292769E0,1.585019827E-1,-7.194519043E-2,2.593288422E-1
6.073292769E0,1.671758890E-1,-1.169114113E-1,2.970638275E-1
6.078292769E0,2.015864849E-1,-1.598930359E-1,2.808961868E-1
6.083292769E0,2.436193228E-1,-9.057044983E-2,2.669496536E-1
6.088292769E0,2.352925539E-1,-6.138038635E-2,2.397737503E-1
6.093292769E0,1.882463694E-1,-1.068258286E-1,2.069435120E-1
6.098292769E0,2.133154869E-1,-9.875917435E-2,1.455516815E-1
6.103292769E0,3.011904955E-1,-3.638029099E-2,3.617191315E-2
6.108292769E0,1.982384920E-1,-1.183929443E-1,-5.795097351E-2
6.113292769E0,2.686146498E-1,-2.312946320E-2,-4.227638245E-3
6.118292769E0,3.057112694E-1,-6.457424164E-2,-3.090858459E-3
6.123292769E0,2.506625652E-1,-1.021170616E-1,-1.009712219E-1
6.128292769E0,2.370288372E-1,-1.017460823E-1,-1.855716705E-1
6.133292769E0,3.190345764E-1,-1.248440742E-1,-2.128944397E-1
6.138292769E0,3.784718513E-1,-1.356296539E-1,-2.453193665E-1
6.143292769E0,3.482236862E-1,-1.300082207E-1,-2.462387085E-1
6.148292769E0,2.899923325E-1,-1.238775253E-1,-2.217273712E-1
6.153292769E0,2.276693583E-1,-7.534122467E-2,-2.092180252E-1
6.158292769E0,1.860584021E-1,-6.262588501E-2,-1.880245209E-1
6.163292769E0,2.101218700E-1,-1.178407669E-2,-1.808223724E-1
6.168292769E0,1.504578590E-1,1.559114456E-2,-1.730728149E-1
6.173292769E0,-1.264544725E-1,-3.122334480E-1,-2.549619675E-1
6.178292769E0,-1.863129139E-1,-3.823056221E-1,-2.924737930E-1
6.183292769E0,-2.194792032E-1,-3.315253258E-1,-4.014806747E-1
6.188292769E0,-2.446964979E-1,-2.576479912E-1,-3.627243042E-1
6.193292769E0,-1.098678112E-1,-1.783027649E-1,-2.907028198E-1
6.198292769E0,8.604633808E-2,-1.717238426E-1,-2.317438126E-1
6.203292769E0,2.491025925E-1,-1.488337517E-1,-1.765737534E-1
6.208292769E0,2.315540314E-1,-1.759982109E-1,-7.572364807E-2
6.213292769E0,1.173020601E-1,-2.251768112E-1,8.678054810E-2
6.218292769E0,7.433819771E-2,-2.417025566E-1,2.160892487E-1
6.223292769E0,5.229353905E-3,-3.460345268E-1,2.629384995E-1
6.228292769E0,-1.948212385E-1,-3.725447655E-1,1.720161438E-1
6.233292769E0,-5.341542959E-1,-2.748866081E-1,-4.350671768E-1
6.238292769E0,-4.576789141E-1,-2.163043022E-1,-3.214540482E-1
6.243292769E0,-3.755635023E-1,-1.902594566E-1,2.082395554E-1
6.248292769E0,-3.158522844E-1,-1.851363182E-1,2.458047867E-1
6.253292769E0,4.466819763E-2,-2.031483650E-1,1.611070633E-1
6.258292769E0,3.954590559E-1,-1.627058983E-1,5.399513245E-2
6.263292769E0,4.264361858E-1,-1.059198380E-1,-1.070404053E-1
6.268292769E0,3.967539072E-1,1.997280121E-2,-1.627311707E-1
6.273292769E0,4.067597389E-1,1.382722855E-1,-2.282676697E-1
6.278292769E0,4.422870874E-1,1.727576256E-1,-1.688938141E-1
6.283292769E0,4.713032246E-1,1.766390800E-1,-9.419250488E-2
6.288292769E0,5.280966759E-1,1.489562988E-1,1.626873016E-2
6.293292769E0,5.399523973E-1,7.816600800E-2,4.630184174E-2
6.298292769E0,5.689156055E-1,-5.920410156E-3,5.265235901E-2
6.303292769E0,6.068644524E-1,-2.296586037E-1,-1.818399429E-1
6.308292769E0,7.506283522E-1,-3.861050606E-1,-5.155553818E-1
6.313292769E0,5.795249939E-1,-1.928219795E-1,-3.959188461E-1
6.318292769E0,3.169088364E-1,4.020023346E-2,-3.034143448E-1
6.323292769E0,1.657087803E-1,1.421890259E-1,-4.339590073E-1
6.328292769E0,2.251293659E-1,1.497597694E-1,-6.835637093E-1
6.333292769E0,2.833508253E-1,1.605739594E-1,-8.377380371E-1
6.338292769E0,2.798229456E-1,2.025928497E-1,-8.244018555E-1
6.343292769E0,2.658903599E-1,2.200832367E-1,-6.223907471E-1
6.348292769E0,1.326310635E-1,1.488456726E-1,-3.643126488E-1
6.353292769E0,-1.300394535E-2,1.299695969E-1,-4.797840118E-2
6.358292769E0,-2.035149336E-1,6.262874603E-2,3.768615723E-1
6.363292769E0,-3.126629591E-1,4.596710205E-4,8.292493820E-1
6.368292769E0,-2.791674137E-1,-1.176214218E-1,1.274132729E0
6.373292769E0,-1.822099686E-1,-2.391076088E-1,1.566445351E0
6.378292769E0,-3.694570065E-2,-3.610019684E-1,1.805463791E0
6.383292769E0,1.334599257E-1,-3.068866730E-1,1.932196617E0
6.388292769E0,1.595644951E-1,4.919052124E-2,1.915141106E0
6.393292769E0,-5.558133125E-3,4.813890457E-1,1.806472778E0
6.398292769E0,-3.874691725E-1,9.035472870E-1,1.668139458E0
6.403292769E0,-2.947085500E-1,9.681949615E-1,1.463805199E0
6.408292769E0,2.812623978E-3,8.112840652E-1,1.097558022E0
6.413292769E0,3.193295002E-1,6.538896561E-1,6.666889191E-1
6.418292769E0,5.524110794E-1,6.821255684E-1,4.695644379E-1
6.423292769E0,7.044834495E-1,6.503024101E-1,3.431138992E-1
6.428292769E0,7.429285049E-1,6.034417152E-1,1.930027008E-1
6.433292769E0,7.272270918E-1,5.297474861E-1,7.846546173E-2
6.438292769E0,6.736735702E-1,4.241051674E-1,-4.612255096E-2
6.443292769E0,5.218051672E-1,3.630123138E-1,-2.200489044E-1
6.448292769E0,2.636190057E-1,3.269572258E-1,-3.495550156E-1
6.453292769E0,-1.575249434E-2,2.610087395E-1,-4.454641342E-1
6.458292769E0,-1.640403867E-1,1.778841019E-1,-5.717611313E-1
6.463292769E0,-1.959396601E-1,1.017951965E-1,-7.206258774E-1
6.468292769E0,-3.121066093E-2,6.035137177E-2,-7.727146149E-1
6.473292769E0,4.661989212E-2,4.593372345E-2,-6.749415398E-1
6.478292769E0,9.032803774E-2,1.652479172E-2,-6.128902435E-1
6.483292769E0,-1.199167967E-2,-7.776260376E-3,-5.706729889E-1
6.488292769E0,-1.508380771E-1,5.011415482E-2,-6.127185822E-1
6.493292769E0,-2.154006958E-1,1.497430801E-1,-4.792327881E-1
6.498292769E0,-1.868469715E-1,1.880564690E-1,-3.363676071E-1
6.503292769E0,4.061132669E-2,1.677913666E-1,-9.125328064E-2
6.508292769E0,4.448121190E-1,9.557437897E-2,1.391506195E-1
6.513292769E0,5.708317757E-1,1.920366287E-2,2.455940247E-1
6.518292769E0,4.906404614E-1,8.621692657E-3,3.357744217E-1
6.523292769E0,6.120633483E-1,7.323312759E-2,2.378358841E-1
6.528292769E0,8.062104583E-1,1.485376358E-1,2.819089890E-1
6.533292769E0,7.517325282E-1,5.632066727E-2,5.084438324E-1
6.538292769E0,7.261900306E-1,-9.681463242E-2,6.732025146E-1
6.543292769E0,6.311371922E-1,-2.350220680E-1,6.593904495E-1
6.548292769E0,4.286355376E-1,-2.802538872E-1,4.169282913E-1
6.553292769E0,1.602416635E-1,-2.079067230E-1,1.417865753E-1
6.558292769E0,-8.697754145E-2,-8.091259003E-2,7.452964783E-3
6.563292769E0,-4.145479202E-1,6.010341644E-2,-1.071062088E-1
6.568292769E0,-6.420143843E-1,9.591770172E-2,-2.660036087E-1
6.573292769E0,-7.596360445E-1,-2.273607254E-2,-4.381694794E-1
6.578292769E0,-8.313661218E-1,-1.739802361E-1,-5.925273895E-1
6.583292769E0,-8.562278152E-1,-2.743644714E-1,-6.894063950E-1
6.588292769E0,-8.844805956E-1,-3.549375534E-1,-6.777133942E-1
6.593292769E0,-9.739061594E-1,-4.189715385E-1,-6.584472656E-1
6.598292769E0,-1.060821772E0,-4.259147644E-1,-6.949729919E-1
6.603292769E0,-1.093029976E0,-3.521804810E-1,-6.988363266E-1
6.608292769E0,-1.209365606E0,-1.809592247E-1,-6.132888794E-1
6.613292769E0,-1.607996583E0,8.104276657E-2,-6.480255127E-1
6.618292769E0,-1.582497120E0,9.641551971E-2,-7.326092720E-1
6.623292769E0,-1.272480011E0,-2.635111809E-1,-5.899620056E-1
6.628292769E0,-8.348377943E-1,-7.513728142E-1,-7.265853882E-2
6.633292769E0,-5.663444996E-1,-1.075401306E0,4.093484879E-1
6.638292769E0,-4.103254676E-1,-9.713284969E-1,2.807331085E-1
6.643292769E0,-2.077822387E-1,-6.856241226E-1,-5.603294373E-1
6.648292769E0,-2.177013755E-1,-2.733802795E-1,-1.092538834E0
6.653292769E0,-4.354533553E-1,1.125502586E-1,-1.323077202E0
6.658292769E0,-5.863777399E-1,3.264055252E-1,-1.648480892E0
6.663292769E0,-5.396345854E-1,2.990140915E-1,-1.875084877E0
6.668292769E0,-2.493817806E-1,1.586394310E-1,-1.964130402E0
6.673292769E0,1.116406918E-1,-8.555889130E-3,-2.068315506E0
6.678292769E0,3.677396774E-1,-7.852077484E-2,-1.971360207E0
6.683292769E0,4.778380990E-1,-5.248928070E-2,-1.756699085E0
6.688292769E0,5.289795995E-1,7.295656204E-2,-1.498873234E0
6.693292769E0,6.187930703E-1,1.498956680E-1,-1.312474251E0
6.698292769E0,8.020280600E-1,1.180434227E-1,-1.172259331E0
6.703292769E0,1.024852514E0,3.472185135E-2,-1.074870110E0
6.708292769E0,1.750355959E0,-7.489395142E-2,-9.932680130E-1
6.713292769E0,2.144843102E0,-2.348041534E-2,-7.321205139E-1
6.718292769E0,2.172782183E0,1.012148857E-1,-5.027837753E-1
6.723292769E0,2.132793188E0,1.818494797E-1,-3.850994110E-1
6.728292769E0,2.056931019E0,2.440347672E-1,-3.376369476E-1
6.733292769E0,2.037261963E0,2.401738167E-1,-3.895330429E-1
6.738292769E0,2.093411446E0,1.918659210E-1,-4.234724045E-1
6.743292769E0,2.158788443E0,1.958103180E-1,-4.485578537E-1
6.748292769E0,2.132149935E0,2.578525543E-1,-4.002237320E-1
6.753292769E0,2.031908512E0,2.939581871E-1,-3.120174408E-1
6.758292769E0,1.812463999E0,2.622861862E-1,-1.401290894E-1
6.763292769E0,1.486297131E0,1.937274933E-1,-6.454658508E-2
6.768292769E0,1.099123359E0,1.549060345E-1,-5.135250092E-2
6.773292769E0,7.139697075E-1,1.471838951E-1,-4.314708710E-2
6.778292769E0,3.722859621E-1,1.829524040E-1,-8.360481262E-2
6.783292769E0,1.250220537E-1,2.352497578E-1,-2.738952637E-3
6.788292769E0,-9.544014931E-3,2.895195484E-1,1.329278946E-1
6.793292769E0,-1.019163132E-1,3.196504116E-1,3.103284836E-1
6.798292769E0,-1.727066040E-1,3.315982819E-1,5.581493378E-1
6.803292769E0,-2.022036314E-1,3.023157120E-1,7.554550171E-1
6.808292769E0,-2.341293097E-1,1.792075634E-1,8.856115341E-1
6.813292769E0,-3.820437193E-1,4.943370819E-2,9.752874374E-1
6.818292769E0,-6.854882240E-1,-1.572132111E-2,1.123381615E0
6.823292769E0,-1.045825481E0,1.744055748E-2,1.256130219E0
6.828292769E0,-1.308875084E0,-1.488566399E-2,1.227822304E0
6.833292769E0,-1.478297591E0,-1.551628113E-3,1.162655830E0
6.838292769E0,-1.640852690E0,2.973246574E-2,1.115671158E0
6.843292769E0,-1.773457289E0,6.073880196E-2,1.048275948E0
6.848292769E0,-1.862514973E0,6.878376007E-2,1.016630173E0
6.853292769E0,-1.931944370E0,9.252667427E-2,1.055216789E0
6.858292769E0,-1.966608882E0,1.108040810E-1,1.146939278E0
6.863292769E0,-1.931839705E0,9.683847427E-2,1.172981262E0
6.868292769E0,-1.857635021E0,2.010679245E-2,1.245140076E0
6.873292769E0,-1.800020337E0,-6.950855255E-2,1.249321938E0
6.878292769E0,-1.768151879E0,-1.497702599E-1,1.216236115E0
6.883292769E0,-1.705379128E0,-1.761229038E-1,1.185555458E0
6.888292769E0,-1.583778143E0,-1.649610996E-1,1.126652718E0
6.893292769E0,-1.479544163E0,-1.434285641E-1,1.122579575E0
6.898292769E0,-1.385290146E0,-1.604981422E-1,9.370489120E-1
6.903292769E0,-1.381351709E0,-3.544614315E-1,6.715259552E-1
6.908292769E0,-1.554028034E0,-9.118931293E-1,4.514636993E-1
6.913292769E0,-1.912296891E0,-1.809022069E0,3.382329941E-1
6.918292769E0,-2.549679041E0,-1.163523912E0,6.131610870E-1
6.923292769E0,-2.928362846E0,2.861552238E-1,4.340190887E-1
6.928292769E0,-3.095294952E0,1.301028728E0,3.395938873E-1
6.933292769E0,-2.729315758E0,1.052371025E0,7.717227936E-2
6.938292769E0,-1.814208865E0,2.413563728E-1,-2.394781113E-1
6.943292769E0,-8.419951200E-1,-4.823811054E-1,-6.099443436E-1
6.948292769E0,-2.254431248E-1,-7.532687187E-1,-5.701875687E-1
6.953292769E0,-8.546531200E-2,-5.292565823E-1,-2.929553986E-1
6.958292769E0,-7.429623604E-2,-1.551225185E-1,-7.913494110E-2
6.963292769E0,6.843471527E-2,1.276774406E-1,-1.760482788E-2
6.968292769E0,2.748299837E-1,2.396981716E-1,-4.718589783E-2
6.973292769E0,3.695688248E-1,2.322621346E-1,-4.712009430E-2
6.978292769E0,3.659486771E-1,1.800885201E-1,-3.519248962E-2
6.983292769E0,3.308075666E-1,1.066503525E-1,-2.982902527E-2
6.988292769E0,3.468177319E-1,3.595900536E-2,-5.068397522E-2
6.993292769E0,4.350663424E-1,-1.381611824E-2,-6.666183472E-2
6.998292769E0,5.105552673E-1,-1.985168457E-2,-1.244401932E-1
7.003292769E0,5.531296730E-1,-9.646654129E-3,-1.909055710E-1
7.008292769E0,5.553473234E-1,-1.216411591E-2,-2.318582535E-1
7.013292769E0,5.860806704E-1,-3.614783287E-2,-2.820301056E-1
7.018292769E0,6.840482950E-1,-1.547565460E-1,-6.439476013E-1
7.023292769E0,2.557777166E-1,7.942581177E-2,-5.503845215E-1
7.028292769E0,2.757883072E-1,1.268737316E-1,-2.892618179E-1
7.033292769E0,4.465059042E-1,3.353452682E-2,-2.035198212E-1
7.038292769E0,6.052813530E-1,-1.388158798E-1,-1.991138458E-1
7.043292769E0,7.397451401E-1,-2.699415684E-1,-2.474756241E-1
7.048292769E0,8.224397898E-1,-2.636134624E-1,-4.201917648E-1
7.053292769E0,8.394464254E-1,-1.742937565E-1,-6.894063950E-1
7.058292769E0,7.963150740E-1,-3.721976280E-2,-1.068778992E0
7.063292769E0,6.834440231E-1,1.750886440E-1,-1.288198471E0
7.068292769E0,6.116443872E-1,2.491061687E-1,-1.074032784E0
7.073292769E0,5.384432077E-1,1.646552086E-1,-1.036129951E0
7.078292769E0,4.334584475E-1,7.493925095E-2,-7.645978928E-1
7.083292769E0,3.594201803E-1,2.461218834E-2,-4.891185760E-1
7.088292769E0,3.570982218E-1,-8.305788040E-3,-3.065338135E-1
7.093292769E0,4.147449732E-1,7.430529594E-2,-2.927446365E-1
7.098292769E0,5.645480156E-1,1.501219273E-1,-5.414581299E-2
7.103292769E0,7.017482519E-1,1.467120647E-1,3.442096710E-2
7.108292769E0,8.068898916E-1,1.308865547E-1,-5.403518677E-2
7.113292769E0,8.419748545E-1,1.978082657E-1,-2.799358368E-1
7.118292769E0,9.378427267E-1,3.666613102E-1,1.515674591E-1
7.123292769E0,1.028293967E0,3.564715385E-1,1.542634964E-1
7.128292769E0,1.147234440E0,2.376763821E-1,2.039508820E-1
7.133292769E0,1.147166610E0,1.385173798E-1,3.405084610E-1
7.138292769E0,9.763599634E-1,7.806277275E-2,4.070425034E-1
7.143292769E0,6.759632826E-1,5.067420006E-2,4.106597900E-1
7.148292769E0,3.871412277E-1,4.219508171E-2,3.032922745E-1
7.153292769E0,1.270350218E-1,6.241083145E-2,1.985836029E-1
7.158292769E0,-8.233261108E-2,1.061592102E-1,1.197490692E-1
7.163292769E0,-1.938132048E-1,1.273114681E-1,1.183004379E-1
7.168292769E0,-1.990417242E-1,9.108424187E-2,1.348628998E-1
7.173292769E0,-1.856515408E-1,1.329112053E-2,1.457433701E-1
7.178292769E0,-1.324381828E-1,-1.356506348E-2,1.242589951E-1
7.183292769E0,-2.973496914E-2,2.027392387E-2,7.557678223E-2
7.188292769E0,9.608411789E-2,8.917617798E-2,7.857513428E-2
7.193292769E0,1.897462606E-1,1.626784801E-1,9.036159515E-2
7.198292769E0,2.709286213E-1,2.332279682E-1,1.361360550E-1
7.203292769E0,3.869721889E-1,2.447676659E-1,2.068128586E-1
7.208292769E0,4.655231237E-1,2.185442448E-1,2.952728271E-1
7.213292769E0,5.312862396E-1,1.736755371E-1,3.582916260E-1
7.218292769E0,5.915439129E-1,1.234810352E-1,3.997335434E-1
7.223292769E0,5.666067600E-1,7.785367966E-2,3.257255554E-1
7.228292769E0,5.237646103E-1,9.106183052E-2,2.663202286E-1
7.233292769E0,5.310382843E-1,8.502149582E-2,1.139545441E-1
7.238292769E0,5.737692118E-1,8.216190338E-2,-3.594589233E-2
7.243292769E0,6.054159403E-1,9.641075134E-2,-1.952848434E-1
7.248292769E0,6.006381512E-1,9.227538109E-2,-3.020229340E-1
7.253292769E0,6.503396034E-1,3.068447113E-2,-3.633041382E-1
7.258292769E0,7.260459661E-1,-6.326508522E-2,-3.808574677E-1
7.263292769E0,7.848963737E-1,-9.916424751E-2,-3.294162750E-1
7.268292769E0,7.917433977E-1,-9.540200233E-2,-2.781744003E-1
7.273292769E0,7.815444469E-1,-7.615065575E-2,-2.279043198E-1
7.278292769E0,7.575502396E-1,-7.181286812E-2,-2.090673447E-1
7.283292769E0,7.373881340E-1,-8.456254005E-2,-2.072172165E-1
7.288292769E0,7.568299770E-1,-1.153633595E-1,-2.280044556E-1
7.293292769E0,7.048877478E-1,-1.294317245E-1,-2.826251984E-1
7.298292769E0,6.315767765E-1,-1.197707653E-1,-3.408050537E-1
7.303292769E0,5.277559757E-1,-1.363329887E-1,-4.009847641E-1
7.308292769E0,4.417053461E-1,-2.195291519E-1,-4.512720108E-1
7.313292769E0,2.901561260E-1,-5.245182514E-1,-7.198343277E-1
7.318292769E0,-8.201003075E-2,-3.089423180E-1,-6.227159500E-1
7.323292769E0,-1.685038805E-1,-1.064443588E-1,-4.226884842E-1
7.328292769E0,-2.143731117E-1,2.953839302E-2,-5.433588028E-1
7.333292769E0,-2.019109726E-1,7.677006721E-2,-3.653345108E-1
7.338292769E0,-1.702392101E-1,-8.090019226E-3,-2.771654129E-1
7.343292769E0,-1.592435837E-1,-1.017191410E-1,-1.288852692E-1
7.348292769E0,-1.797515154E-1,-2.118401527E-1,-1.412210464E-1
7.353292769E0,-2.222012281E-1,-2.403395176E-1,-4.125022888E-2
7.358292769E0,-2.529754639E-1,-1.997845173E-1,4.957485199E-2
7.363292769E0,-3.276507854E-1,-1.522688866E-1,8.909416199E-2
7.368292769E0,-4.429566860E-1,-7.169866562E-2,1.499443054E-1
7.373292769E0,-6.177229881E-1,3.034329414E-2,2.104072571E-1
7.378292769E0,-7.998081446E-1,1.060881615E-1,2.297000885E-1
7.383292769E0,-9.380567074E-1,1.658272743E-1,2.644186020E-1
7.388292769E0,-1.035797834E0,1.784105301E-1,3.611116409E-1
7.393292769E0,-1.097928047E0,1.482241154E-1,4.923076630E-1
7.398292769E0,-1.155455112E0,9.615874290E-2,5.958337784E-1
7.403292769E0,-1.237761855E0,4.546141624E-2,6.553363800E-1
7.408292769E0,-1.323167443E0,3.928327560E-2,6.525974274E-1
7.413292769E0,-1.353479624E0,7.115769386E-2,6.016225815E-1
7.418292769E0,-1.313125134E0,1.350970268E-1,5.426225662E-1
7.423292769E0,-1.235200286E0,1.642274857E-1,4.525413513E-1
7.428292769E0,-1.109280586E0,1.712367535E-1,3.278350830E-1
7.433292769E0,-1.008165359E0,1.736996174E-1,2.149887085E-1
7.438292769E0,-9.435334206E-1,1.623513699E-1,1.490125656E-1
7.443292769E0,-9.207198620E-1,1.627588272E-1,1.241865158E-1
7.448292769E0,-9.361224174E-1,1.726362705E-1,1.750383377E-1
7.453292769E0,-9.434026480E-1,1.886055470E-1,2.404527664E-1
7.458292769E0,-1.009010315E0,1.677808762E-1,3.121328354E-1
7.463292769E0,-1.072591305E0,1.544022560E-1,3.858480453E-1
7.468292769E0,-1.109707355E0,1.349670887E-1,4.809036255E-1
7.473292769E0,-1.147520900E0,8.763504028E-2,5.355691910E-1
7.478292769E0,-1.198327541E0,5.501961708E-2,5.713996887E-1
7.483292769E0,-1.279877424E0,6.497263908E-2,5.538473129E-1
7.488292769E0,-1.369450450E0,1.175704002E-1,5.059194565E-1
7.493292769E0,-1.471036911E0,1.844756603E-1,4.244461060E-1
7.498292769E0,-1.575258851E0,2.211062908E-1,3.821754456E-1
7.503292769E0,-1.632484317E0,2.402818203E-1,3.842544556E-1
7.508292769E0,-1.648875713E0,2.326543331E-1,3.971271515E-1
7.513292769E0,-1.607683420E0,2.266008854E-1,4.777355194E-1
7.518292769E0,-1.546145678E0,2.373173237E-1,5.552043915E-1
7.523292769E0,-1.467264652E0,2.822213173E-1,6.256122589E-1
7.528292769E0,-1.406178832E0,3.317122459E-1,6.816043854E-1
7.533292769E0,-1.356088400E0,3.493673801E-1,7.000827789E-1
7.538292769E0,-1.328582883E0,3.361017704E-1,6.527547836E-1
7.543292769E0,-1.294932365E0,3.113889694E-1,5.690622330E-1
7.548292769E0,-1.272519231E0,2.994153500E-1,4.830913544E-1
7.553292769E0,-1.266560435E0,3.337697983E-1,4.290485382E-1
7.558292769E0,-1.312153697E0,3.769459724E-1,3.597106934E-1
7.563292769E0,-1.356913209E0,3.659112453E-1,3.104276657E-1
7.568292769E0,-1.377870202E0,3.338110447E-1,2.940378189E-1
7.573292769E0,-1.405131340E0,2.778530121E-1,3.021478653E-1
7.578292769E0,-1.399004698E0,2.407984734E-1,3.308172226E-1
7.583292769E0,-1.411888361E0,2.314822674E-1,3.456144333E-1
7.588292769E0,-1.395097494E0,2.323858738E-1,2.956600189E-1
7.593292769E0,-1.333344102E0,1.949422359E-1,1.987447739E-1
7.598292769E0,-1.197268724E0,1.961221695E-1,1.043233871E-1
7.603292769E0,-1.087542057E0,2.008457184E-1,5.207633972E-2
7.608292769E0,-1.034673691E0,2.120625973E-1,2.088356018E-2
7.613292769E0,-1.057840109E0,2.345094681E-1,1.609802246E-3
7.618292769E0,-1.160560369E0,2.481291294E-1,-1.118183136E-2
7.623292769E0,-1.297229528E0,2.703390121E-1,3.854370117E-2
7.628292769E0,-1.431829453E0,2.331593037E-1,1.389274597E-1
7.633292769E0,-1.532919645E0,1.388738155E-1,1.648826599E-1
7.638292769E0,-1.552939653E0,2.110767365E-2,1.606225967E-1
7.643292769E0,-1.474348187E0,-1.428985596E-2,1.678810120E-1
7.648292769E0,-1.278278828E0,3.125905991E-2,1.721372604E-1
7.653292769E0,-1.072623014E0,1.054599285E-1,1.764354706E-1
7.658292769E0,-8.813616633E-1,1.915593147E-1,1.716279984E-1
7.663292769E0,-6.582527161E-1,2.380886078E-1,2.074127197E-1
7.668292769E0,-3.929634094E-1,2.365581989E-1,2.758941650E-1
7.673292769E0,-1.422483921E-1,1.982169151E-1,3.285198212E-1
7.678292769E0,-8.410930634E-3,1.805856228E-1,3.971567154E-1
7.683292769E0,2.723026276E-2,1.900341511E-1,4.486217499E-1
7.688292769E0,-1.430749893E-3,1.793482304E-1,4.571075439E-1
7.693292769E0,-1.461017132E-2,1.437952518E-1,4.271469116E-1
7.698292769E0,-1.689410210E-2,1.266577244E-1,3.955307007E-1
7.703292769E0,-1.126909256E-2,1.260194778E-1,3.658170700E-1
7.708292769E0,3.340172768E-2,1.783368587E-1,3.102912903E-1
7.713292769E0,8.133816719E-2,2.294132710E-1,2.612504959E-1
7.718292769E0,8.411896229E-2,2.856969833E-1,2.358388901E-1
7.723292769E0,8.760797977E-2,3.033967018E-1,2.312583923E-1
7.728292769E0,1.072462797E-1,2.852265835E-1,2.716779709E-1
7.733292769E0,2.351937294E-1,2.396888733E-1,3.381280899E-1
7.738292769E0,3.975880146E-1,2.017829418E-1,3.800106049E-1
7.743292769E0,5.493596792E-1,1.615951061E-1,3.986454010E-1
7.748292769E0,6.765111685E-1,1.759536266E-1,3.740854263E-1
7.753292769E0,7.388099432E-1,1.963338852E-1,3.004302979E-1
7.758292769E0,8.134716749E-1,2.226355076E-1,2.069072723E-1
7.763292769E0,9.018363953E-1,2.338709831E-1,1.107416153E-1
7.768292769E0,9.737526178E-1,2.236146927E-1,-1.836490631E-2
7.773292769E0,1.002552271E0,2.211580276E-1,-1.061944962E-1
7.778292769E0,9.646185637E-1,2.646939754E-1,-1.673021317E-1
7.783292769E0,8.608176708E-1,2.999358177E-1,-2.365875244E-1
7.788292769E0,7.543632984E-1,2.978982925E-1,-2.740631104E-1
7.793292769E0,7.005933523E-1,2.557210922E-1,-3.161668777E-1
7.798292769E0,6.457619667E-1,2.025346756E-1,-3.327188492E-1
7.803292769E0,7.844841480E-1,1.131908894E-1,-1.475896835E-1
7.808292769E0,1.270575643E0,1.740360260E-2,5.016756058E-1
7.813292769E0,1.703220487E0,9.693479538E-2,1.056656837E0
7.818292769E0,1.543109655E0,4.386966228E-1,8.819389343E-1
7.823292769E0,1.310746431E0,6.310865879E-1,5.012550354E-1
7.828292769E0,1.155573964E0,6.056907177E-1,3.229341507E-1
7.833292769E0,1.086745620E0,4.367618561E-1,2.687702179E-1
7.838292769E0,1.000738621E0,2.734372616E-1,1.553144455E-1
7.843292769E0,9.014515877E-1,1.642267704E-1,-6.123161316E-2
7.848292769E0,8.790786266E-1,8.164143562E-2,-2.846908569E-1
7.853292769E0,9.164265394E-1,3.246521950E-2,-4.733772278E-1
7.858292769E0,9.104034901E-1,7.276678085E-2,-6.113271713E-1
7.863292769E0,9.567185640E-1,1.344571114E-1,-7.473125458E-1
7.868292769E0,9.462192059E-1,2.382001877E-1,-8.749418259E-1
7.873292769E0,9.267351627E-1,3.268241882E-1,-9.729504585E-1
7.878292769E0,8.764190674E-1,3.950424194E-1,-9.999713898E-1
7.883292769E0,8.463531733E-1,4.024138451E-1,-9.306898117E-1
7.888292769E0,6.824489832E-1,5.390620232E-1,-8.217430115E-1
7.893292769E0,5.176063776E-1,7.200665474E-1,-7.017059326E-1
7.898292769E0,2.212746143E-1,9.375619888E-1,-5.050563812E-1
7.903292769E0,-1.360311508E-1,1.071971893E0,-2.122783661E-1
7.908292769E0,-4.861674309E-1,1.124747753E0,4.346084595E-2
7.913292769E0,-6.683878899E-1,9.047026634E-1,6.148767471E-1
7.918292769E0,-7.006882429E-1,3.368415833E-1,1.535162926E0
7.923292769E0,-7.013294697E-1,8.829689026E-2,1.291758537E0
7.928292769E0,-4.332832098E-1,-1.246466637E-1,7.977132797E-1
7.933292769E0,-1.887294054E-1,-2.141907215E-1,1.874084473E-1
7.938292769E0,-1.602547169E-1,-2.809224129E-1,-6.076297760E-1
7.943292769E0,-1.220338345E-1,-1.756973267E-1,-1.288951874E0
7.948292769E0,3.463349342E-1,5.550336838E-2,-1.796179771E0
7.953292769E0,7.881953716E-1,1.269421577E-1,-2.057749748E0
7.958292769E0,1.411080122E0,1.529889107E-1,-2.110689163E0
7.963292769E0,2.339186192E0,1.911740303E-1,-2.015946388E0
7.968292769E0,3.053716421E0,3.119316101E-1,-1.730359077E0
7.973292769E0,3.051117182E0,4.299063683E-1,-1.246075630E0
7.978292769E0,2.344091415E0,4.635109901E-1,-6.664752960E-1
7.983292769E0,1.074971914E0,5.039072037E-1,-5.454444885E-2
7.988292769E0,-1.795632839E-1,5.334501266E-1,4.151563644E-1
7.993292769E0,-1.044675827E0,4.738740921E-1,7.222108841E-1
7.998292769E0,-1.361265421E0,3.186841011E-1,8.973741531E-1
8.003292769E0,-1.287249327E0,9.151268005E-2,9.535999298E-1
8.008292769E0,-1.014673233E0,-1.185698509E-1,8.362903595E-1
8.013292769E0,-8.607387543E-1,-3.343334198E-1,5.814247131E-1
8.018292769E0,-8.495799303E-1,-4.509425163E-1,2.854480743E-1
8.023292769E0,-8.739660978E-1,-4.465456009E-1,-3.555297852E-2
8.028292769E0,-8.932254314E-1,-3.290569782E-1,-3.635787964E-1
8.033292769E0,-7.421597242E-1,-1.551361084E-1,-6.363105774E-1
8.038292769E0,-4.375330210E-1,1.794862747E-2,-8.599481583E-1
8.043292769E0,-1.363943815E-1,1.402096748E-1,-9.881448746E-1
8.048292769E0,-7.677507401E-2,2.273802757E-1,-1.032242298E0
8.053292769E0,-9.187686443E-2,3.204636574E-1,-1.008968353E0
8.058292769E0,-6.348133087E-2,-4.451370239E-2,-1.076300621E0
8.063292769E0,-2.355848551E-1,-6.765470505E-1,-1.064815044E0
8.068292769E0,-5.414377451E-1,-6.321034431E-1,-5.637140274E-1
8.073292769E0,-9.301720858E-1,-3.502826691E-1,-2.809419632E-1
8.078292769E0,-1.147558212E0,-1.235747337E-1,-3.773145676E-1
8.083292769E0,-1.049391508E0,6.788015366E-2,-6.700773239E-1
8.088292769E0,-7.686110735E-1,2.812757492E-1,-9.948291779E-1
8.093292769E0,-5.063933134E-1,4.295258522E-1,-1.155757904E0
8.098292769E0,-2.430260181E-1,5.048694611E-1,-1.150443077E0
8.103292769E0,-3.758192062E-3,5.071077347E-1,-1.038309097E0
8.108292769E0,1.191269159E-1,4.328353405E-1,-7.419223785E-1
8.113292769E0,1.106413603E-1,2.646918297E-1,-1.156091690E-1
8.118292769E0,2.623363733E-1,9.073019028E-3,1.176179886E0
8.123292769E0,1.238238811E-1,6.054282188E-2,1.375508308E0
8.128292769E0,-8.281457424E-2,7.605743408E-2,1.352010727E0
8.133292769E0,-5.726603270E-1,4.124403000E-2,1.228507042E0
8.138292769E0,-8.084175587E-1,6.799888611E-2,1.055662155E0
8.143292769E0,-9.671907425E-1,5.351352692E-2,8.719387054E-1
8.148292769E0,-1.025197864E0,1.141223907E-1,7.032756805E-1
8.153292769E0,-1.038231373E0,2.639849186E-1,5.496816635E-1
8.158292769E0,-4.952651262E-1,6.104569435E-1,4.431657791E-1
8.163292769E0,-4.769861698E-1,7.278320789E-1,3.905696869E-1
8.168292769E0,-8.267760277E-1,8.225228786E-1,2.143192291E-1
8.173292769E0,-1.221467376E0,8.868575096E-1,1.048564911E-2
8.178292769E0,-1.469090939E0,1.000750542E0,-1.652517319E-1
8.183292769E0,-1.556150198E0,1.095594645E0,-2.594738007E-1
8.188292769E0,-1.501428485E0,1.068605423E0,-3.063745499E-1
8.193292769E0,-1.251421690E0,9.342799187E-1,-2.691621780E-1
8.198292769E0,-9.439828396E-1,8.162267208E-1,-1.328716278E-1
8.203292769E0,-6.585881710E-1,7.087178230E-1,5.688285828E-2
8.208292769E0,-4.056237936E-1,5.844829082E-1,3.041658401E-1
8.213292769E0,-2.486523390E-1,4.443199635E-1,5.401287079E-1
8.218292769E0,-1.764942408E-1,2.904939651E-1,7.524604797E-1
8.223292769E0,-1.051644087E-1,8.183932304E-2,9.179849625E-1
8.228292769E0,2.386140823E-2,-1.446180344E-1,1.041543961E0
8.233292769E0,2.741312981E-1,-3.587367535E-1,1.124999046E0
8.238292769E0,6.749727726E-1,-5.188226700E-1,1.108216286E0
8.243292769E0,1.082857132E0,-6.656587124E-1,1.024289131E0
8.248292769E0,1.246074915E0,-1.027087688E0,1.072443962E0
8.253292769E0,1.404905796E0,-1.785728216E0,1.360976219E0
8.258292769E0,1.919384003E0,-2.393354416E0,1.521020889E0
8.263292769E0,2.387541771E0,-2.437929869E0,1.248761177E0
8.268292769E0,2.185544014E0,-2.201691866E0,7.452230453E-1
8.273292769E0,1.443297863E0,-2.039659500E0,2.838106155E-1
8.278292769E0,6.109552383E-1,-2.041627884E0,-5.593299866E-2
8.283292769E0,-2.023079395E-1,-2.244186640E0,-3.956127167E-2
8.288292769E0,-8.748173714E-1,-2.140577316E0,5.238800049E-1
8.293292769E0,-9.615554810E-1,-1.488779306E0,9.282226562E-1
8.298292769E0,-4.911065102E-2,-1.077878594E0,5.756864548E-1
8.303292769E0,3.288762569E-1,-6.367151737E-1,4.418859482E-1
8.308292769E0,6.477284431E-2,-1.931371689E-1,8.483505249E-1
8.313292769E0,3.195953369E-2,-3.005647659E-1,8.794822693E-1
8.318292769E0,7.241559029E-2,-5.792999268E-1,6.851911545E-1
8.323292769E0,2.761366367E-1,-7.827210426E-1,4.909210205E-1
8.328292769E0,9.233572483E-1,-1.023547888E0,8.745574951E-2
8.333292769E0,1.530472755E0,-1.208465099E0,-3.872032166E-1
8.338292769E0,1.853807449E0,-1.429502249E0,-9.479551315E-1
8.343292769E0,1.810435295E0,-1.644329667E0,-1.395369530E0
8.348292769E0,1.535706997E0,-1.833442092E0,-1.739202499E0
8.353292769E0,1.203546047E0,-1.906322360E0,-1.963601112E0
8.358292769E0,1.238524199E0,-1.893909931E0,-2.235232353E0
8.363292769E0,1.028666496E0,-1.829253912E0,-2.551630974E0
8.368292769E0,6.750991344E-1,-1.534194469E0,-2.783473015E0
8.373292769E0,5.348706245E-2,-1.113631725E0,-2.875242710E0
8.378292769E0,-6.883246899E-1,-8.678240776E-1,-2.899132252E0
8.383292769E0,-1.234800816E0,-2.294521332E-1,-2.659692764E0
8.388292769E0,-1.462164879E0,6.909682751E-1,-2.297421455E0
8.393292769E0,-1.518644333E0,1.311256409E0,-1.801471710E0
8.398292769E0,-1.419456482E0,1.652857065E0,-1.430227280E0
8.403292769E0,-1.064670563E0,1.634715319E0,-1.548484325E0
8.408292769E0,-5.618824959E-1,1.493984222E0,-1.976411819E0
8.413292769E0,-2.426185608E-1,1.065048218E0,-1.944594383E0
8.418292769E0,-9.639787674E-2,4.029417038E-2,-1.664267063E0
8.423292769E0,2.937586308E-1,-1.108357906E0,-1.483011723E0
8.428292769E0,7.014887333E-1,-2.287235498E0,-1.425946236E0
8.433292769E0,4.179265499E-1,-2.270601511E0,-1.428341866E0
8.438292769E0,2.252273560E-1,-1.410350323E0,-9.841585159E-1
8.443292769E0,1.133034229E-1,-7.842969894E-1,-6.198396683E-1
8.448292769E0,1.957421303E-1,-2.588567734E-1,-3.820972443E-1
8.453292769E0,6.416060925E-1,-1.139633656E-1,-4.801101685E-1
8.458292769E0,1.074013233E0,-3.286149502E-1,-6.564159393E-1
8.463292769E0,1.109227896E0,-4.818329811E-1,-3.920106888E-1
8.468292769E0,8.551981449E-1,-4.630672932E-1,1.191883087E-1
8.473292769E0,5.943634510E-1,-4.476275444E-1,5.259094238E-1
8.478292769E0,5.811786652E-1,-5.440511703E-1,6.867542267E-1
8.483292769E0,7.851309776E-1,-6.796090603E-1,6.548891068E-1
8.488292769E0,1.095753670E0,-9.105951786E-1,5.293865204E-1
8.493292769E0,1.437179565E0,-1.162003756E0,5.110025406E-1
8.498292769E0,1.546972275E0,-1.064454079E0,8.466796875E-1
8.503292769E0,1.381379366E0,-8.099143505E-1,1.378202438E0
8.508292769E0,1.278404951E0,-7.213206291E-1,1.750638008E0
8.513292769E0,1.353570938E0,-8.819017410E-1,1.952195168E0
8.518292769E0,1.331954718E0,-9.998617172E-1,1.913331985E0
8.523292769E0,1.212376356E0,-1.020013809E0,1.803255081E0
8.528292769E0,1.193310738E0,-1.023025751E0,1.741159439E0
8.533292769E0,1.156229019E0,-1.074681520E0,1.665973663E0
8.538292769E0,9.614868164E-1,-1.131237030E0,1.742177010E0
8.543292769E0,8.601953983E-1,-1.171044588E0,1.627347946E0
8.548292769E0,9.790170193E-1,-1.188304186E0,1.326066017E0
8.553292769E0,1.353659630E0,-1.364013433E0,9.980163574E-1
8.558292769E0,1.640548229E0,-1.372686386E0,8.607797623E-1
8.563292769E0,1.550557375E0,-8.682851791E-1,1.362826347E0
8.568292769E0,2.147691488E0,-4.606597424E-1,1.348130226E0
8.573292769E0,2.988092899E0,-5.680286884E-1,1.162061691E0
8.578292769E0,2.777297258E0,-8.699550629E-1,1.103294373E0
8.583292769E0,2.736487389E0,-1.087198257E0,7.508516312E-1
8.588292769E0,2.590383291E0,-1.217642784E0,2.652769089E-1
8.593292769E0,2.299110651E0,-1.180410624E0,-1.264925003E-1
8.598292769E0,1.962883234E0,-1.022968054E0,-2.909679413E-1
8.603292769E0,1.683494806E0,-8.476264477E-1,-2.866058350E-1
8.608292769E0,1.550665140E0,-8.076460361E-1,-3.826341629E-1
8.613292769E0,1.485007524E0,-6.003942490E-1,-4.033126831E-1
8.618292769E0,1.489373207E0,-3.445658684E-1,-5.947217941E-1
8.623292769E0,1.817543507E0,-1.505930424E-1,-8.322324753E-1
8.628292769E0,2.340869904E0,-1.244566441E-1,-1.148733616E0
8.633292769E0,2.962106705E0,-5.818450451E-1,-1.935688972E0
8.638292769E0,3.326663494E0,-4.141733646E-1,-2.494415283E0
8.643292769E0,3.337399960E0,-1.481127739E-2,-2.837336063E0
8.648292769E0,3.179408550E0,4.199109077E-1,-2.973371983E0
8.653292769E0,2.977838516E0,5.160906315E-1,-3.122732639E0
8.658292769E0,2.766843796E0,4.911098480E-1,-3.233032703E0
8.663292769E0,2.628359318E0,3.551466465E-1,-3.312450409E0
8.668292769E0,2.695543766E0,1.198201180E-1,-3.372598648E0
8.673292769E0,3.076725006E0,-2.506849766E-1,-3.483247042E0
8.678292769E0,3.577352524E0,-4.939851761E-1,-3.452336788E0
8.683292769E0,4.062278271E0,-5.895040035E-1,-3.293962955E0
8.688292769E0,4.389278412E0,-4.246203899E-1,-2.927329063E0
8.693292769E0,4.628705502E0,-1.138193607E-1,-2.467599869E0
8.698292769E0,4.850988865E0,1.529035568E-1,-2.096324444E0
8.703292769E0,4.836875439E0,2.303662300E-1,-1.878896713E0
8.708292769E0,4.576778412E0,2.755677700E-1,-1.558349609E0
8.713292769E0,3.945513248E0,2.899923325E-1,-1.442832947E0
8.718292769E0,3.343824863E0,2.196478844E-2,-1.286544323E0
8.723292769E0,2.807567120E0,2.021789551E-2,-1.149855614E0
8.728292769E0,2.294069290E0,1.615304947E-1,-8.101572990E-1
8.733292769E0,1.815301418E0,3.431189060E-1,-5.467123985E-1
8.738292769E0,1.470911026E0,4.727876186E-1,-6.208119392E-1
8.743292769E0,1.132865906E0,5.908992290E-1,-7.802000046E-1
8.748292769E0,8.726825714E-1,7.983546257E-1,-9.695901871E-1
8.753292769E0,6.286134720E-1,1.037171841E0,-1.084897995E0
8.758292769E0,2.188653946E-1,1.222362041E0,-1.014213085E0
8.763292769E0,7.323884964E-2,1.489803791E0,-8.871712685E-1
8.768292769E0,3.249449730E-1,2.116215229E0,-7.646055222E-1
8.773292769E0,1.658720970E-1,2.481771469E0,-6.216115952E-1
8.778292769E0,-2.178115845E-1,2.398921490E0,-6.464853287E-1
8.783292769E0,-3.831214905E-1,2.378568172E0,-7.844524384E-1
8.788292769E0,-4.416646957E-1,2.385731220E0,-7.313399315E-1
8.793292769E0,-4.641375542E-1,2.163504601E0,-6.398983002E-1
8.798292769E0,-3.659338951E-1,1.788163662E0,-6.907691956E-1
8.803292769E0,-2.102351189E-1,1.369642258E0,-7.971405983E-1
8.808292769E0,-2.474632263E-1,9.856362343E-1,-8.805394173E-1
8.813292769E0,-5.175023079E-1,5.320148468E-1,-9.786052704E-1
8.818292769E0,-1.067753792E0,-9.727478027E-4,-1.052570581E0
8.823292769E0,-1.833077908E0,-4.658451080E-1,-1.073933840E0
8.828292769E0,-2.844973087E0,-7.919828892E-1,-1.030893326E0
8.833292769E0,-3.980787754E0,-9.362597466E-1,-8.905580044E-1
8.838292769E0,-5.100327492E0,-9.080364704E-1,-6.656484604E-1
8.843292769E0,-6.126755714E0,-7.422437668E-1,-4.092636108E-1
8.848292769E0,-7.089824200E0,-5.120964050E-1,-1.408684254E-1
8.853292769E0,-7.946097374E0,-2.873320580E-1,8.781909943E-2
8.858292769E0,-8.620944023E0,-1.630425453E-1,2.087059021E-1
8.863292769E0,-8.884375572E0,-1.257662773E-1,3.008712530E-1
8.868292769E0,-8.719374657E0,-2.844023705E-1,4.054702520E-1
8.873292769E0,-8.089589119E0,-7.360305786E-1,5.160666108E-1
8.878292769E0,-7.043310642E0,-1.269214630E0,6.581383944E-1
8.883292769E0,-5.767096043E0,-1.690570354E0,7.680152059E-1
8.888292769E0,-4.643350124E0,-1.802162170E0,8.657785058E-1
8.893292769E0,-3.724506855E0,-1.662334919E0,9.949105978E-1
8.898292769E0,-3.169152260E0,-1.403581142E0,1.218499660E0
8.903292769E0,-2.748384953E0,-1.071164608E0,1.408985734E0
8.908292769E0,-2.359757423E0,-7.882232666E-1,1.681867361E0
8.913292769E0,-2.531299591E0,-8.198034763E-1,1.873453617E0
8.918292769E0,-2.982658863E0,-1.009747505E0,1.972807765E0
8.923292769E0,-3.540678978E0,-1.211461544E0,2.100746155E0
8.928292769E0,-4.081609726E0,-1.402300835E0,2.305651665E0
8.933292769E0,-4.297900677E0,-1.662977695E0,2.530252218E0
8.938292769E0,-4.042771339E0,-1.971103191E0,2.729568958E0
8.943292769E0,-3.532032013E0,-2.187803745E0,2.888154745E0
8.948292769E0,-2.676476955E0,-2.045400381E0,2.915769577E0
8.953292769E0,-1.692038059E0,-1.852504730E0,2.905544043E0
8.958292769E0,-7.502899170E-1,-1.765050650E0,2.969329357E0
8.963292769E0,7.633018494E-2,-1.811957836E0,2.847219467E0
8.968292769E0,8.071398735E-1,-1.675065517E0,2.740016460E0
8.973292769E0,1.546243191E0,-1.394018173E0,2.644825459E0
8.978292769E0,2.323925972E0,-1.120964050E0,2.523241997E0
8.983292769E0,3.089526176E0,-1.003961802E0,2.370305538E0
8.988292769E0,4.046769142E0,-8.642346859E-1,2.230192661E0
8.993292769E0,4.805487156E0,-7.115182877E-1,2.185563564E0
8.998292769E0,4.950193882E0,-6.405680180E-1,1.910650253E0
9.003292769E0,4.759345055E0,-5.275292397E-1,1.562340260E0
9.008292769E0,4.359377384E0,-3.879866600E-1,1.386933804E0
9.013292769E0,3.717325211E0,-2.939429283E-1,1.365103245E0
9.018292769E0,2.922071934E0,-2.994031906E-1,1.440243244E0
9.023292769E0,2.120266438E0,-4.655694962E-1,1.546032429E0
9.028292769E0,1.415428162E0,-7.278976440E-1,1.654790878E0
9.033292769E0,8.406333923E-1,-1.004440308E0,1.687717438E0
9.038292769E0,5.203666687E-1,-1.135553598E0,1.674528599E0
9.043292769E0,5.252623558E-1,-1.059369445E0,1.589954376E0
9.048292769E0,7.595996857E-1,-8.654344082E-1,1.462769032E0
9.053292769E0,1.231952667E0,-6.365485191E-1,1.361408234E0
9.058292769E0,1.833412647E0,-4.389429092E-1,1.377138138E0
9.063292769E0,2.282118320E0,-3.580641747E-1,1.572786331E0
9.068292769E0,2.513026237E0,-3.950672150E-1,1.963630199E0
9.073292769E0,2.559971333E0,-4.453505278E-1,2.411365986E0
9.078292769E0,2.542867661E0,-4.750920534E-1,2.857542992E0
9.083292769E0,2.648349285E0,-5.268285275E-1,3.243758202E0
9.088292769E0,2.938675404E0,-6.446554661E-1,3.465635300E0
9.093292769E0,3.385222912E0,-7.514932156E-1,3.456130505E0
9.098292769E0,3.775641441E0,-7.303245068E-1,3.194630623E0
9.103292769E0,3.916747093E0,-6.694458723E-1,2.814944267E0
9.108292769E0,3.728909492E0,-6.924346685E-1,2.469785690E0
9.113292769E0,3.434117794E0,-7.475972176E-1,2.064588547E0
9.118292769E0,3.263807774E0,-7.854920626E-1,1.642834663E0
9.123292769E0,3.022555351E0,-8.569183946E-1,1.321434975E0
9.128292769E0,2.554042339E0,-7.641429305E-1,1.023229599E0
9.133292769E0,1.883230209E0,-6.261262894E-1,7.178459167E-1
9.138292769E0,1.238140345E0,-5.666280985E-1,4.081096649E-1
9.143292769E0,9.173367023E-1,-6.516515017E-1,4.328632355E-2
9.148292769E0,8.976790905E-1,-9.036200047E-1,-2.521257401E-1
9.153292769E0,1.180601835E0,-1.114415884E0,-4.650468826E-1
9.158292769E0,1.749888420E0,-1.014051557E0,-6.389274597E-1
9.163292769E0,2.483591080E0,-7.475485206E-1,-7.652845383E-1
9.168292769E0,3.172355652E0,-5.788853765E-1,-9.247531891E-1
9.173292769E0,3.640261173E0,-6.228771806E-1,-1.209458351E0
9.178292769E0,3.759253502E0,-8.092353940E-1,-1.566826820E0
9.183292769E0,3.634431601E0,-9.877432585E-1,-1.971358299E0
9.188292769E0,3.322298527E0,-1.039952517E0,-2.424319267E0
9.193292769E0,2.909598827E0,-1.003618717E0,-2.863207817E0
9.198292769E0,2.461078405E0,-9.131433964E-1,-3.214025497E0
9.203292769E0,2.037337303E0,-8.352559805E-1,-3.418939590E0
9.208292769E0,1.595540285E0,-7.258554697E-1,-3.504920006E0
9.213292769E0,1.115073919E0,-5.527530909E-1,-3.494685173E0
9.218292769E0,7.132077217E-1,-4.566240609E-1,-3.422723770E0
9.223292769E0,4.668924809E-1,-5.438509583E-1,-3.323745728E0
9.228292769E0,4.069316387E-1,-7.225083113E-1,-3.242611885E0
9.233292769E0,5.593471527E-1,-9.300686121E-1,-3.079021454E0
9.238292769E0,8.483704329E-1,-1.008594990E0,-2.842000961E0
9.243292769E0,1.308983326E0,-8.809338212E-1,-2.710962296E0
9.248292769E0,1.843673706E0,-7.228769660E-1,-2.649125099E0
9.253292769E0,2.216777802E0,-6.497365832E-1,-2.557840347E0
9.258292769E0,2.296317577E0,-7.594519854E-1,-2.503256798E0
9.263292769E0,2.105829716E0,-8.941523433E-1,-2.484349251E0
9.268292769E0,1.739378452E0,-1.016432166E0,-2.516792297E0
9.273292769E0,1.326871991E0,-1.134652376E0,-2.511478424E0
9.278292769E0,1.028216958E0,-1.154997349E0,-2.437014580E0
9.283292769E0,8.168846369E-1,-1.069993615E0,-2.270958900E0
9.288292769E0,6.148229837E-1,-9.385418296E-1,-2.054172516E0
9.293292769E0,4.702298641E-1,-7.860742211E-1,-1.837867737E0
9.298292769E0,3.903559446E-1,-6.781873107E-1,-1.695465088E0
9.303292769E0,3.962408304E-1,-6.635353565E-1,-1.614377975E0
9.308292769E0,5.070772171E-1,-6.960541606E-1,-1.580241203E0
9.313292769E0,5.971217155E-1,-7.460232973E-1,-1.502871513E0
9.318292769E0,6.412090063E-1,-7.621802688E-1,-1.354486465E0
9.323292769E0,6.710590124E-1,-7.283095717E-1,-1.143731117E0
9.328292769E0,6.847711802E-1,-6.648162603E-1,-9.037065506E-1
9.333292769E0,6.812502146E-1,-5.254900455E-1,-6.674032211E-1
9.338292769E0,6.720837355E-1,-4.386860132E-1,-3.912038803E-1
9.343292769E0,7.743164301E-1,-4.247009158E-1,-1.345787048E-1
9.348292769E0,9.553523064E-1,-4.252004027E-1,2.423954010E-2
9.353292769E0,1.148615599E0,-4.205452502E-1,1.325483322E-1
9.358292769E0,1.272712708E0,-4.345992804E-1,2.283325195E-1
9.363292769E0,1.296892047E0,-5.115893483E-1,3.562202454E-1
9.368292769E0,1.215756416E0,-6.705464125E-1,6.066274643E-1
9.373292769E0,1.093190432E0,-7.915561795E-1,9.454612732E-1
9.378292769E0,9.612709284E-1,-8.181874752E-1,1.211404800E0
9.383292769E0,8.413362503E-1,-7.618703842E-1,1.275647163E0
9.388292769E0,7.166399956E-1,-6.098861694E-1,1.059334755E0
9.393292769E0,5.499251485E-1,-4.544430673E-1,6.460933685E-1
9.398292769E0,4.675250053E-1,-3.573667407E-1,1.188488007E-1
9.403292769E0,4.682476521E-1,-2.865322530E-1,-3.700084686E-1
9.408292769E0,4.936124086E-1,-3.153424859E-1,-7.957191467E-1
9.413292769E0,4.802988768E-1,-4.013183713E-1,-1.077583313E0
9.418292769E0,5.410574079E-1,-3.311902583E-1,-1.207444191E0
9.423292769E0,3.365483582E-1,-2.429221570E-1,-1.234322548E0
9.428292769E0,3.391844034E-2,-2.384606004E-1,-1.315828323E0
9.433292769E0,-2.284892499E-1,-2.763405442E-1,-1.431989670E0
9.438292769E0,-4.086109996E-1,-3.243795633E-1,-1.529708862E0
9.443292769E0,-5.297009945E-1,-3.760947585E-1,-1.528360367E0
9.448292769E0,-5.660220385E-1,-4.125463367E-1,-1.462578773E0
9.453292769E0,-5.022969246E-1,-4.235320091E-1,-1.313129425E0
9.458292769E0,-2.686115503E-1,-3.307225704E-1,-1.124734879E0
9.463292769E0,4.339635372E-3,-2.057664394E-1,-8.524188995E-1
9.468292769E0,1.280161142E-1,-6.496149302E-2,-5.669603348E-1
9.473292769E0,1.617160141E-1,-4.514455795E-4,-2.906265259E-1
9.478292769E0,1.570251286E-1,-3.212708235E-2,-8.792209625E-2
9.483292769E0,1.532982886E-1,-8.751869202E-2,9.294509888E-2
9.488292769E0,1.469255984E-1,-9.206008911E-2,2.960987091E-1
9.493292769E0,1.325936615E-1,-8.201205730E-2,5.722217560E-1
9.498292769E0,1.770804524E-1,-6.728672981E-2,7.823228836E-1
9.503292769E0,2.271508127E-1,-4.598402977E-2,9.149036407E-1
9.508292769E0,1.986607462E-1,2.716302872E-2,7.289829254E-1
9.513292769E0,-4.185159504E-1,9.438824654E-2,-1.981428146E0
9.518292769E0,-3.420686722E-1,3.130214810E-1,-1.954441071E-1
9.523292769E0,-1.351054907E-1,3.385656178E-1,-4.244232178E-2
9.528292769E0,2.338839620E-1,7.200304270E-1,-1.191733360E0
9.533292769E0,8.965396881E-2,7.084761262E-1,3.353357315E-1
9.538292769E0,4.758458585E-2,3.227982223E-1,1.122424126E0
9.543292769E0,7.054883242E-2,-1.065906286E-1,9.461250305E-1
9.548292769E0,6.755509973E-2,-3.368721008E-1,3.367424011E-1
9.553292769E0,-3.811563551E-2,-4.633584619E-1,-1.174374580E0
9.558292769E0,-2.332589328E-1,-2.204245031E-1,-1.759410858E0
9.563292769E0,-1.683193147E-1,1.419048905E-1,-1.628562927E0
9.568292769E0,-7.946915925E-2,4.338531792E-1,-9.475317001E-1
9.573292769E0,-2.349611372E-2,5.372162461E-1,-1.002235413E-1
9.578292769E0,-8.439727128E-2,7.642015219E-1,1.032661438E0
9.583292769E0,1.919571757E-1,3.486985564E-1,1.361065865E0
9.588292769E0,4.245788455E-1,-3.259970844E-1,1.337070465E0
9.593292769E0,4.845574200E-1,-6.983164549E-1,1.530388832E0
9.598292769E0,3.330087662E-1,-6.011334658E-1,8.369264603E-1
9.603292769E0,2.314324081E-1,-4.067536294E-1,5.686750412E-1
9.608292769E0,7.186034322E-2,-1.095549464E-1,5.937328339E-1
9.613292769E0,7.294990122E-3,1.333079636E-1,7.041358948E-2
9.618292769E0,2.599904537E-1,-2.251375616E-1,8.804988861E-2
9.623292769E0,2.887732685E-1,-2.349360883E-1,-4.190187454E-1
9.628292769E0,-5.215147138E-2,1.744538248E-1,-9.995965958E-1
9.633292769E0,-1.342926770E-1,6.179976463E-1,-6.882276535E-1
9.638292769E0,1.036013588E-1,7.242345810E-1,-5.501556396E-2
9.643292769E0,1.691964120E-1,5.011686683E-1,-2.639312744E-1
9.648292769E0,9.657995403E-2,2.142295241E-1,-1.576910019E0
9.653292769E0,-6.953513622E-2,7.798196077E-1,2.785530090E-1
9.658292769E0,-2.191975564E-1,1.384804964E0,1.167011261E-1
9.663292769E0,1.844410598E-2,1.157614350E0,5.596008301E-1
9.668292769E0,1.946882159E-1,6.376360059E-1,2.221546173E-1
9.673292769E0,5.205233693E-1,2.163812518E-1,4.110136032E-1
9.678292769E0,6.835506558E-1,-2.356781065E-1,4.370498657E-2
9.683292769E0,6.453859210E-1,-4.637859762E-1,-2.225723267E-1
9.688292769E0,4.445275068E-1,-6.871132851E-1,-3.487024307E-1
9.693292769E0,2.947957516E-1,-1.025099039E0,4.019317627E-1
9.698292769E0,-4.188986421E-1,-1.229615092E0,-1.749615669E0
9.703292769E0,-9.932607412E-3,-8.214149475E-1,1.034593582E0
9.708292769E0,-4.071291685E-1,-7.741540670E-1,2.374944687E-1
9.713292769E0,-1.411840320E-3,-2.857466340E-1,-9.057903290E-2
9.718292769E0,-7.350192964E-2,-1.775869727E-1,3.191671371E-1
9.723292769E0,1.606559753E-2,-3.161507845E-2,9.505844116E-2
9.728292769E0,3.957113028E-1,8.211058378E-2,2.036685944E-1
9.733292769E0,3.757365346E-1,7.630079985E-2,2.733478546E-1
9.738292769E0,3.218950033E-1,5.636015534E-2,3.300886154E-1
9.743292769E0,3.051014245E-1,-5.506098270E-3,2.797069550E-1
9.748292769E0,2.243038565E-1,-1.229560971E-1,4.210195541E-1
9.753292769E0,6.332859397E-3,-2.073055804E-1,5.623340607E-2
9.758292769E0,9.691829979E-2,1.636978984E-1,1.886634827E-1
9.763292769E0,-1.996199787E-2,-3.964966536E-2,2.185478210E-1
9.768292769E0,4.619707167E-2,2.447241694E-1,2.298021317E-1
9.773292769E0,4.580371082E-2,7.156856358E-2,1.969022751E-1
9.778292769E0,1.400321573E-1,1.649578363E-1,2.025375366E-1
9.783292769E0,2.348272800E-1,5.221596360E-2,2.321090698E-1
9.788292769E0,2.987120152E-1,1.747655869E-2,2.634963989E-1
9.793292769E0,3.245986700E-1,-3.945052624E-2,2.942276001E-1
9.798292769E0,3.903311491E-1,-5.176278949E-2,3.860349655E-1
9.803292769E0,3.305811286E-1,-6.153935194E-2,4.451036453E-1
9.808292769E0,3.105285466E-1,-5.221098661E-3,2.863817215E-1
9.813292769E0,2.615389228E-1,5.037319660E-2,3.300628662E-1
9.818292769E0,2.937400043E-1,7.092164457E-2,2.436523438E-1
9.823292769E0,2.465298772E-1,9.064492583E-2,1.565828323E-1
9.828292769E0,2.366090268E-1,1.249152422E-2,1.932640076E-1
9.833292769E0,2.132411599E-1,-3.187373281E-2,2.078428268E-1
9.838292769E0,2.001232803E-1,-7.087105513E-2,2.017240524E-1
9.843292769E0,1.810851097E-1,-4.439884424E-2,2.761068344E-1
9.848292769E0,2.598735392E-1,1.052606106E-2,2.111196518E-1
9.853292769E0,3.577738404E-1,6.744027138E-2,3.015556335E-1
9.858292769E0,4.334775209E-1,1.177628338E-1,2.512378693E-1
9.863292769E0,5.061475039E-1,1.133867055E-1,1.984748840E-1
9.868292769E0,5.356034040E-1,8.000795543E-2,2.810173035E-1
9.873292769E0,5.121967793E-1,-2.509620786E-2,2.068405151E-1
9.878292769E0,3.911860883E-1,-5.970594287E-2,8.741378784E-2
9.883292769E0,2.018057555E-1,-8.069685102E-2,2.309722900E-1
9.888292769E0,9.496837854E-2,-5.372405052E-3,1.387081146E-1
9.893292769E0,5.402882397E-2,8.653154969E-2,2.549066544E-1
9.898292769E0,1.167535111E-1,1.664638668E-1,2.375745773E-1
9.903292769E0,2.291591018E-1,1.859697253E-1,1.770982742E-1
9.908292769E0,3.194693029E-1,9.470354021E-2,2.795448303E-1
9.913292769E0,4.122897089E-1,8.517682552E-2,9.746551514E-2
9.918292769E0,4.675458074E-1,-2.937698364E-2,2.461566925E-1
9.923292769E0,4.354098141E-1,-4.784482718E-2,1.313858032E-1
9.928292769E0,3.750623465E-1,-4.279515147E-2,1.528015137E-1
9.933292769E0,3.605234623E-1,5.848649144E-2,2.075576782E-2
9.938292769E0,2.982596755E-1,1.428048462E-1,1.034669876E-1
9.943292769E0,2.305056751E-1,1.858967841E-1,-4.970359802E-2
9.948292769E0,1.857392937E-1,1.551004201E-1,1.663894653E-1
9.953292769E0,2.796123922E-1,1.266127527E-1,9.482383728E-3
9.958292769E0,3.095787466E-1,5.726069212E-3,2.366428375E-1
9.963292769E0,3.776131272E-1,-5.387282372E-2,8.365440369E-2
9.968292769E0,4.324874878E-1,-8.392405510E-2,1.664676666E-1
9.973292769E0,4.103392363E-1,-6.677874923E-2,5.644226074E-2
9.978292769E0,2.415944934E-1,4.117220640E-3,5.141735077E-2
