
time,gFx,gFy,gFz,ax,ay,az,I,Latitude,Longitude,Speed (m/s),
15:06:57:976,0.0000,0.0000,0.0000,0.0000,0.0000,0.0000,798.9976,0.00000000,0.00000000,0.00000000,
15:06:58:038,0.0000,0.0000,0.0000,0.0000,0.0000,0.0000,798.9976,50.37559099,16.28176144,0.00000000,
15:06:58:043,0.0186,-0.0039,1.0060,0.0000,0.0000,0.0000,798.9976,50.37559099,16.28176144,0.00000000,
15:06:58:044,0.0225,-0.0042,1.0063,0.0000,0.0000,0.0000,798.9976,50.37559099,16.28176144,0.00000000,
15:06:58:045,0.0223,-0.0035,1.0047,0.0000,0.0000,0.0000,798.9976,50.37559099,16.28176144,0.00000000,
15:06:58:047,0.0195,0.0002,1.0040,0.0000,0.0000,0.0000,798.9976,50.37559099,16.28176144,0.00000000,
15:06:58:107,0.0195,0.0002,1.0040,0.0000,0.0000,0.0000,798.9976,50.37559099,16.28176144,0.00000000,
15:06:58:108,0.0195,0.0002,1.0040,0.0000,0.0000,0.0000,796.9725,50.37559099,16.28176144,0.00000000,
15:06:58:109,0.0154,0.0037,1.0046,0.0000,0.0000,0.0000,796.9725,50.37559099,16.28176144,0.00000000,
15:06:58:110,0.0104,0.0044,1.0043,0.0000,0.0000,0.0000,796.9725,50.37559099,16.28176144,0.00000000,
15:06:58:112,0.0079,0.0043,1.0045,0.0000,0.0000,0.0000,796.9725,50.37559099,16.28176144,0.00000000,
15:06:58:113,0.0079,0.0043,1.0045,0.0000,0.0000,0.0000,796.9725,50.37559099,16.28176144,0.00000000,
15:06:58:173,0.0079,0.0043,1.0045,0.0000,0.0000,0.0000,796.9725,50.37559099,16.28176144,0.00000000,
15:06:58:177,0.0079,0.0043,1.0045,-0.0498,0.0326,-0.0007,796.9725,50.37559099,16.28176144,0.00000000,
15:06:58:178,0.0092,0.0018,1.0043,-0.0498,0.0326,-0.0007,796.9725,50.37559099,16.28176144,0.00000000,
15:06:58:180,0.0098,-0.0013,1.0046,-0.0498,0.0326,-0.0007,796.9725,50.37559099,16.28176144,0.00000000,
15:06:58:182,0.0134,-0.0016,1.0040,-0.0498,0.0326,-0.0007,796.9725,50.37559099,16.28176144,0.00000000,
15:06:58:241,0.0134,-0.0016,1.0040,-0.0498,0.0326,-0.0007,796.9725,50.37559099,16.28176144,0.00000000,
15:06:58:243,0.0167,-0.0029,1.0051,-0.0498,0.0326,-0.0007,796.9725,50.37559099,16.28176144,0.00000000,
15:06:58:245,0.0197,-0.0032,1.0041,-0.0498,0.0326,-0.0007,796.9725,50.37559099,16.28176144,0.00000000,
15:06:58:246,0.0202,-0.0016,1.0056,-0.0498,0.0326,-0.0007,796.9725,50.37559099,16.28176144,0.00000000,
15:06:58:247,0.0202,-0.0016,1.0056,-0.0304,-0.0110,-0.0021,796.9725,50.37559099,16.28176144,0.00000000,
15:06:58:308,0.0202,-0.0016,1.0056,-0.0304,-0.0110,-0.0021,796.9725,50.37559099,16.28176144,0.00000000,
15:06:58:310,0.0202,-0.0009,1.0045,-0.0304,-0.0110,-0.0021,796.9725,50.37559099,16.28176144,0.00000000,
15:06:58:311,0.0184,0.0001,1.0051,-0.0304,-0.0110,-0.0021,796.9725,50.37559099,16.28176144,0.00000000,
15:06:58:312,0.0160,0.0008,1.0048,-0.0304,-0.0110,-0.0021,796.9725,50.37559099,16.28176144,0.00000000,
15:06:58:313,0.0160,0.0008,1.0048,0.0365,-0.0177,0.0027,796.9725,50.37559099,16.28176144,0.00000000,
15:06:58:376,0.0160,0.0008,1.0048,0.0365,-0.0177,0.0027,796.9725,50.37559099,16.28176144,0.00000000,
15:06:58:378,0.0143,0.0013,1.0038,0.0365,-0.0177,0.0027,796.9725,50.37559099,16.28176144,0.00000000,
15:06:58:379,0.0123,0.0005,1.0050,0.0365,-0.0177,0.0027,796.9725,50.37559099,16.28176144,0.00000000,
15:06:58:380,0.0115,0.0000,1.0049,0.0365,-0.0177,0.0027,796.9725,50.37559099,16.28176144,0.00000000,
15:06:58:381,0.0115,0.0000,1.0049,0.0081,0.0062,-0.0002,796.9725,50.37559099,16.28176144,0.00000000,
15:06:58:428,0.0115,0.0000,1.0049,0.0081,0.0062,-0.0002,797.9850,50.37559099,16.28176144,0.00000000,
15:06:58:431,0.0130,-0.0003,1.0039,0.0081,0.0062,-0.0002,797.9850,50.37559099,16.28176144,0.00000000,
15:06:58:433,0.0145,0.0000,1.0046,0.0081,0.0062,-0.0002,797.9850,50.37559099,16.28176144,0.00000000,
15:06:58:436,0.0163,-0.0012,1.0049,0.0081,0.0062,-0.0002,797.9850,50.37559099,16.28176144,0.00000000,
15:06:58:445,0.0163,-0.0012,1.0049,0.0081,0.0062,-0.0002,797.9850,50.37559099,16.28176144,0.00000000,
15:06:58:449,0.0163,-0.0012,1.0049,-0.0303,0.0033,0.0000,797.9850,50.37559099,16.28176144,0.00000000,
15:06:58:494,0.0177,-0.0004,1.0052,-0.0303,0.0033,0.0000,797.9850,50.37559099,16.28176144,0.00000000,
15:06:58:497,0.0174,-0.0007,1.0044,-0.0303,0.0033,0.0000,797.9850,50.37559099,16.28176144,0.00000000,
15:06:58:499,0.0176,0.0009,1.0047,-0.0303,0.0033,0.0000,797.9850,50.37559099,16.28176144,0.00000000,
15:06:58:513,0.0176,0.0009,1.0047,-0.0303,0.0033,0.0000,797.9850,50.37559099,16.28176144,0.00000000,
15:06:58:517,0.0176,0.0009,1.0047,0.0067,-0.0031,0.0023,797.9850,50.37559099,16.28176144,0.00000000,
15:06:58:561,0.0168,0.0006,1.0053,0.0067,-0.0031,0.0023,797.9850,50.37559099,16.28176144,0.00000000,
15:06:58:564,0.0143,-0.0006,1.0051,0.0067,-0.0031,0.0023,797.9850,50.37559099,16.28176144,0.00000000,
15:06:58:567,0.0127,0.0001,1.0057,0.0067,-0.0031,0.0023,797.9850,50.37559099,16.28176144,0.00000000,
15:06:58:580,0.0127,0.0001,1.0057,0.0067,-0.0031,0.0023,797.9850,50.37559099,16.28176144,0.00000000,
15:06:58:585,0.0127,0.0001,1.0057,0.0126,0.0044,0.0023,797.9850,50.37559099,16.28176144,0.00000000,
15:06:58:588,0.0127,0.0001,1.0057,0.0126,0.0044,0.0023,796.9725,50.37559099,16.28176144,0.00000000,
15:06:58:590,0.0121,-0.0004,1.0043,0.0126,0.0044,0.0023,796.9725,50.37559099,16.28176144,0.00000000,
15:06:58:649,0.0121,-0.0004,1.0043,0.0126,0.0044,0.0023,796.9725,50.37559099,16.28176144,0.00000000,
15:06:58:654,0.0121,-0.0004,1.0043,-0.0271,-0.0013,0.0023,796.9725,50.37559099,16.28176144,0.00000000,
15:06:58:656,0.0121,-0.0006,1.0044,-0.0271,-0.0013,0.0023,796.9725,50.37559099,16.28176144,0.00000000,
15:06:58:658,0.0140,-0.0013,1.0046,-0.0271,-0.0013,0.0023,796.9725,50.37559099,16.28176144,0.00000000,
15:06:58:659,0.0151,0.0000,1.0055,-0.0271,-0.0013,0.0023,796.9725,50.37559099,16.28176144,0.00000000,
15:06:58:716,0.0151,0.0000,1.0055,-0.0271,-0.0013,0.0023,796.9725,50.37559099,16.28176144,0.00000000,
15:06:58:720,0.0151,0.0000,1.0055,-0.0048,0.0006,0.0015,796.9725,50.37559099,16.28176144,0.00000000,
15:06:58:723,0.0169,0.0011,1.0049,-0.0048,0.0006,0.0015,796.9725,50.37559099,16.28176144,0.00000000,
15:06:58:726,0.0184,-0.0009,1.0050,-0.0048,0.0006,0.0015,796.9725,50.37559099,16.28176144,0.00000000,
15:06:58:728,0.0189,-0.0049,1.0041,-0.0048,0.0006,0.0015,796.9725,50.37559099,16.28176144,0.00000000,
15:06:58:730,0.0182,-0.0054,1.0049,-0.0048,0.0006,0.0015,796.9725,50.37559099,16.28176144,0.00000000,
15:06:58:783,0.0182,-0.0054,1.0049,-0.0048,0.0006,0.0015,796.9725,50.37559099,16.28176144,0.00000000,
15:06:58:789,0.0160,-0.0040,1.0049,-0.0048,0.0006,0.0015,796.9725,50.37559099,16.28176144,0.00000000,
15:06:58:790,0.0130,-0.0023,1.0032,-0.0048,0.0006,0.0015,796.9725,50.37559099,16.28176144,0.00000000,
15:06:58:791,0.0109,0.0003,1.0037,-0.0048,0.0006,0.0015,796.9725,50.37559099,16.28176144,0.00000000,
15:06:58:793,0.0109,0.0003,1.0037,0.0273,-0.0268,-0.0005,796.9725,50.37559099,16.28176144,0.00000000,
15:06:58:851,0.0109,0.0003,1.0037,0.0273,-0.0268,-0.0005,796.9725,50.37559099,16.28176144,0.00000000,
15:06:58:856,0.0109,0.0003,1.0037,-0.0234,-0.0092,-0.0073,796.9725,50.37559099,16.28176144,0.00000000,
15:06:58:859,0.0096,0.0021,1.0047,-0.0234,-0.0092,-0.0073,796.9725,50.37559099,16.28176144,0.00000000,
15:06:58:861,0.0101,0.0024,1.0048,-0.0234,-0.0092,-0.0073,796.9725,50.37559099,16.28176144,0.00000000,
15:06:58:863,0.0112,0.0020,1.0045,-0.0234,-0.0092,-0.0073,796.9725,50.37559099,16.28176144,0.00000000,
15:06:58:907,0.0112,0.0020,1.0045,-0.0234,-0.0092,-0.0073,796.0275,50.37559099,16.28176144,0.00000000,
15:06:58:909,0.0143,0.0009,1.0039,-0.0234,-0.0092,-0.0073,796.0275,50.37559099,16.28176144,0.00000000,
15:06:58:910,0.0200,0.0024,1.0052,-0.0234,-0.0092,-0.0073,796.0275,50.37559099,16.28176144,0.00000000,
15:06:58:920,0.0200,0.0024,1.0052,-0.0234,-0.0092,-0.0073,796.0275,50.37559099,16.28176144,0.00000000,
15:06:58:924,0.0200,0.0024,1.0052,-0.0417,0.0249,0.0017,796.0275,50.37559099,16.28176144,0.00000000,
15:06:58:962,0.0225,0.0010,1.0042,-0.0417,0.0249,0.0017,796.0275,50.37559099,16.28176144,0.00000000,
15:06:58:963,0.0236,-0.0003,1.0042,-0.0417,0.0249,0.0017,796.0275,50.37559102,16.28176205,0.00000000,
15:06:58:963,0.0236,0.0000,1.0052,-0.0417,0.0249,0.0017,796.0275,50.37559102,16.28176205,0.00000000,
15:06:58:986,0.0236,0.0000,1.0052,-0.0417,0.0249,0.0017,796.0275,50.37559102,16.28176205,0.00000000,
15:06:58:991,0.0236,0.0000,1.0052,0.0504,0.0140,-0.0022,796.0275,50.37559102,16.28176205,0.00000000,
15:06:59:026,0.0205,0.0012,1.0029,0.0504,0.0140,-0.0022,796.0275,50.37559102,16.28176205,0.00000000,
15:06:59:029,0.0181,0.0021,1.0051,0.0504,0.0140,-0.0022,796.0275,50.37559102,16.28176205,0.00000000,
15:06:59:032,0.0143,0.0016,1.0050,0.0504,0.0140,-0.0022,796.0275,50.37559102,16.28176205,0.00000000,
15:06:59:056,0.0143,0.0016,1.0050,0.0504,0.0140,-0.0022,796.0275,50.37559102,16.28176205,0.00000000,
15:06:59:059,0.0143,0.0016,1.0050,0.0502,0.0102,-0.0028,796.0275,50.37559102,16.28176205,0.00000000,
15:06:59:067,0.0118,-0.0003,1.0042,0.0502,0.0102,-0.0028,796.0275,50.37559102,16.28176205,0.00000000,
15:06:59:068,0.0085,-0.0016,1.0050,0.0502,0.0102,-0.0028,796.0275,50.37559102,16.28176205,0.00000000,
15:06:59:071,0.0085,-0.0016,1.0050,0.0502,0.0102,-0.0028,792.9901,50.37559102,16.28176205,0.00000000,
15:06:59:123,0.0085,-0.0016,1.0050,0.0502,0.0102,-0.0028,792.9901,50.37559102,16.28176205,0.00000000,
15:06:59:128,0.0085,-0.0016,1.0050,-0.0382,0.0020,0.0015,792.9901,50.37559102,16.28176205,0.00000000,
15:06:59:134,0.0071,-0.0018,1.0025,-0.0382,0.0020,0.0015,792.9901,50.37559102,16.28176205,0.00000000,
15:06:59:136,0.0076,0.0010,1.0061,-0.0382,0.0020,0.0015,792.9901,50.37559102,16.28176205,0.00000000,
15:06:59:138,0.0101,0.0026,1.0046,-0.0382,0.0020,0.0015,792.9901,50.37559102,16.28176205,0.00000000,
15:06:59:190,0.0101,0.0026,1.0046,-0.0382,0.0020,0.0015,792.9901,50.37559102,16.28176205,0.00000000,
15:06:59:195,0.0101,0.0026,1.0046,-0.0637,0.0065,-0.0005,792.9901,50.37559102,16.28176205,0.00000000,
15:06:59:201,0.0123,0.0018,1.0053,-0.0637,0.0065,-0.0005,792.9901,50.37559102,16.28176205,0.00000000,
15:06:59:204,0.0157,0.0015,1.0048,-0.0637,0.0065,-0.0005,792.9901,50.37559102,16.28176205,0.00000000,
15:06:59:207,0.0184,-0.0001,1.0051,-0.0637,0.0065,-0.0005,792.9901,50.37559102,16.28176205,0.00000000,
15:06:59:227,0.0184,-0.0001,1.0051,-0.0637,0.0065,-0.0005,796.9725,50.37559102,16.28176205,0.00000000,
15:06:59:229,0.0189,0.0000,1.0045,-0.0637,0.0065,-0.0005,796.9725,50.37559102,16.28176205,0.00000000,
15:06:59:258,0.0189,0.0000,1.0045,-0.0637,0.0065,-0.0005,796.9725,50.37559102,16.28176205,0.00000000,
15:06:59:262,0.0189,0.0000,1.0045,0.0113,0.0094,0.0036,796.9725,50.37559102,16.28176205,0.00000000,
15:06:59:294,0.0190,0.0001,1.0045,0.0113,0.0094,0.0036,796.9725,50.37559102,16.28176205,0.00000000,
15:06:59:297,0.0187,-0.0004,1.0051,0.0113,0.0094,0.0036,796.9725,50.37559102,16.28176205,0.00000000,
15:06:59:301,0.0173,-0.0032,1.0055,0.0113,0.0094,0.0036,796.9725,50.37559102,16.28176205,0.00000000,
15:06:59:304,0.0169,-0.0052,1.0036,0.0113,0.0094,0.0036,796.9725,50.37559102,16.28176205,0.00000000,
15:06:59:327,0.0169,-0.0052,1.0036,0.0113,0.0094,0.0036,796.9725,50.37559102,16.28176205,0.00000000,
15:06:59:331,0.0169,-0.0052,1.0036,0.0342,-0.0064,-0.0001,796.9725,50.37559102,16.28176205,0.00000000,
15:06:59:361,0.0169,-0.0077,1.0041,0.0342,-0.0064,-0.0001,796.9725,50.37559102,16.28176205,0.00000000,
15:06:59:365,0.0178,-0.0086,1.0054,0.0342,-0.0064,-0.0001,796.9725,50.37559102,16.28176205,0.00000000,
15:06:59:368,0.0142,-0.0233,1.0066,0.0342,-0.0064,-0.0001,796.9725,50.37559102,16.28176205,0.00000000,
15:06:59:387,0.0142,-0.0233,1.0066,0.0342,-0.0064,-0.0001,797.9850,50.37559102,16.28176205,0.00000000,
15:06:59:389,-0.0124,-0.0770,1.0007,0.0342,-0.0064,-0.0001,797.9850,50.37559102,16.28176205,0.00000000,
15:06:59:394,-0.0124,-0.0770,1.0007,0.0342,-0.0064,-0.0001,797.9850,50.37559102,16.28176205,0.00000000,
15:06:59:398,-0.0124,-0.0770,1.0007,0.0042,-0.0467,0.0036,797.9850,50.37559102,16.28176205,0.00000000,
15:06:59:454,-0.1520,-0.0752,1.0019,0.0042,-0.0467,0.0036,797.9850,50.37559102,16.28176205,0.00000000,
15:06:59:458,-0.0663,-0.0487,1.0116,0.0042,-0.0467,0.0036,797.9850,50.37559102,16.28176205,0.00000000,
15:06:59:460,0.0764,0.0016,1.0350,0.0042,-0.0467,0.0036,797.9850,50.37559102,16.28176205,0.00000000,
15:06:59:462,0.0764,0.0016,1.0350,0.0042,-0.0467,0.0036,797.9850,50.37559102,16.28176205,0.00000000,
15:06:59:466,0.0764,0.0016,1.0350,-0.5155,-0.3255,-0.0150,797.9850,50.37559102,16.28176205,0.00000000,
15:06:59:521,0.0624,-0.0300,0.9754,-0.5155,-0.3255,-0.0150,797.9850,50.37559102,16.28176205,0.00000000,
15:06:59:523,0.1019,-0.0270,1.0013,-0.5155,-0.3255,-0.0150,797.9850,50.37559102,16.28176205,0.00000000,
15:06:59:527,0.1086,-0.0319,1.0048,-0.5155,-0.3255,-0.0150,797.9850,50.37559102,16.28176205,0.00000000,
15:06:59:530,0.1086,-0.0319,1.0048,-0.5155,-0.3255,-0.0150,797.9850,50.37559102,16.28176205,0.00000000,
15:06:59:534,0.1086,-0.0319,1.0048,-0.0739,0.2427,0.0271,797.9850,50.37559102,16.28176205,0.00000000,
15:06:59:547,0.1086,-0.0319,1.0048,-0.0739,0.2427,0.0271,803.9926,50.37559102,16.28176205,0.00000000,
15:06:59:548,0.0980,-0.1043,1.0022,-0.0739,0.2427,0.0271,803.9926,50.37559102,16.28176205,0.00000000,
15:06:59:549,0.0741,-0.1190,1.0432,-0.0739,0.2427,0.0271,803.9926,50.37559102,16.28176205,0.00000000,
15:06:59:598,0.0741,-0.1190,1.0432,-0.0739,0.2427,0.0271,803.9926,50.37559102,16.28176205,0.00000000,
15:06:59:605,0.0741,-0.1190,1.0432,0.6484,0.1090,0.1295,803.9926,50.37559102,16.28176205,0.00000000,
15:06:59:614,0.0539,-0.0960,0.9726,0.6484,0.1090,0.1295,803.9926,50.37559102,16.28176205,0.00000000,
15:06:59:618,0.0023,-0.0174,1.0476,0.6484,0.1090,0.1295,803.9926,50.37559102,16.28176205,0.00000000,
15:06:59:619,0.0051,-0.0336,0.9902,0.6484,0.1090,0.1295,803.9926,50.37559102,16.28176205,0.00000000,
15:06:59:665,0.0051,-0.0336,0.9902,0.6484,0.1090,0.1295,803.9926,50.37559102,16.28176205,0.00000000,
15:06:59:670,0.0051,-0.0336,0.9902,-0.0376,0.4300,0.0585,803.9926,50.37559102,16.28176205,0.00000000,
15:06:59:681,0.0228,-0.0869,0.9885,-0.0376,0.4300,0.0585,803.9926,50.37559102,16.28176205,0.00000000,
15:06:59:683,0.0111,-0.1483,1.0046,-0.0376,0.4300,0.0585,803.9926,50.37559102,16.28176205,0.00000000,
15:06:59:684,-0.0074,-0.1676,0.9950,-0.0376,0.4300,0.0585,803.9926,50.37559102,16.28176205,0.00000000,
15:06:59:708,-0.0074,-0.1676,0.9950,-0.0376,0.4300,0.0585,813.9825,50.37559102,16.28176205,0.00000000,
15:06:59:710,0.0322,-0.2217,0.9944,-0.0376,0.4300,0.0585,813.9825,50.37559102,16.28176205,0.00000000,
15:06:59:734,0.0322,-0.2217,0.9944,-0.0376,0.4300,0.0585,813.9825,50.37559102,16.28176205,0.00000000,
15:06:59:741,0.0322,-0.2217,0.9944,-0.2427,0.1802,0.0003,813.9825,50.37559102,16.28176205,0.00000000,
15:06:59:774,0.0609,-0.2543,1.0190,-0.2427,0.1802,0.0003,813.9825,50.37559102,16.28176205,0.00000000,
15:06:59:775,0.0759,-0.2415,1.1064,-0.2427,0.1802,0.0003,813.9825,50.37559102,16.28176205,0.00000000,
15:06:59:778,0.1417,-0.2430,1.2563,-0.2427,0.1802,0.0003,813.9825,50.37559102,16.28176205,0.00000000,
15:06:59:801,0.1417,-0.2430,1.2563,-0.2427,0.1802,0.0003,813.9825,50.37559102,16.28176205,0.00000000,
15:06:59:806,0.1417,-0.2430,1.2563,-0.2210,-1.0956,0.3322,813.9825,50.37559102,16.28176205,0.00000000,
15:06:59:841,0.1079,-0.2152,1.3502,-0.2210,-1.0956,0.3322,813.9825,50.37559102,16.28176205,0.00000000,
15:06:59:844,0.0900,-0.2128,1.2727,-0.2210,-1.0956,0.3322,813.9825,50.37559102,16.28176205,0.00000000,
15:06:59:848,0.0277,-0.2182,1.2267,-0.2210,-1.0956,0.3322,813.9825,50.37559102,16.28176205,0.00000000,
15:06:59:869,0.0720,-0.1711,1.2355,-0.2210,-1.0956,0.3322,813.9825,50.37559102,16.28176205,0.00000000,
15:06:59:872,0.0837,-0.1223,1.2817,-0.2210,-1.0956,0.3322,813.9825,50.37559102,16.28176205,0.00000000,
15:06:59:874,0.0837,-0.1223,1.2817,-0.2210,-1.0956,0.3322,814.9951,50.37559102,16.28176205,0.00000000,
15:06:59:876,0.0837,-0.1223,1.2817,-0.2210,-1.0956,0.3322,814.9951,50.37559102,16.28176205,0.00000000,
15:06:59:877,0.0837,-0.1223,1.2817,0.0269,-1.5582,2.4664,814.9951,50.37559102,16.28176205,0.00000000,
15:06:59:934,0.1190,-0.0918,1.3377,0.0269,-1.5582,2.4664,814.9951,50.37559102,16.28176205,0.00000000,
15:06:59:938,0.0884,-0.0805,1.2688,0.0269,-1.5582,2.4664,814.9951,50.37559102,16.28176205,0.00000000,
15:06:59:940,0.0526,-0.0449,1.1936,0.0269,-1.5582,2.4664,814.9951,50.37559102,16.28176205,0.00000000,
15:06:59:942,0.0526,-0.0449,1.1936,0.0269,-1.5582,2.4664,814.9951,50.37559102,16.28176205,0.00000000,
15:06:59:943,0.0526,-0.0449,1.1936,-0.5281,-2.0134,1.9757,814.9951,50.37559102,16.28176205,0.00000000,
15:06:59:961,0.1134,-0.0086,1.0640,-0.5281,-2.0134,1.9757,814.9951,50.37559102,16.28176205,0.00000000,
15:07:00:006,0.1134,-0.0086,1.0640,-0.5281,-2.0134,1.9757,814.9951,50.37559102,16.28176205,0.00000000,
15:07:00:008,0.1134,-0.0086,1.0640,-0.4226,-2.1731,1.5889,814.9951,50.37559102,16.28176205,0.00000000,
15:07:00:026,0.1134,-0.0086,1.0640,-0.4226,-2.1731,1.5889,708.0075,50.37559102,16.28176205,0.00000000,
15:07:00:027,0.1769,0.0379,1.0013,-0.4226,-2.1731,1.5889,708.0075,50.37559102,16.28176205,0.00000000,
15:07:00:028,0.0812,0.0985,1.0066,-0.4226,-2.1731,1.5889,708.0075,50.37559102,16.28176205,0.00000000,
15:07:00:029,-0.0589,0.0887,1.0223,-0.4226,-2.1731,1.5889,708.0075,50.37559102,16.28176205,0.00000000,
15:07:00:072,-0.0589,0.0887,1.0223,-0.4226,-2.1731,1.5889,708.0075,50.37559102,16.28176205,0.00000000,
15:07:00:077,-0.0589,0.0887,1.0223,-0.6205,-1.8832,-0.1633,708.0075,50.37559102,16.28176205,0.00000000,
15:07:00:094,0.0710,0.1283,0.8728,-0.6205,-1.8832,-0.1633,708.0075,50.37559102,16.28176205,0.00000000,
15:07:00:096,0.1513,0.2047,0.7597,-0.6205,-1.8832,-0.1633,708.0075,50.37559102,16.28176205,0.00000000,
15:07:00:098,0.0419,0.2368,0.8248,-0.6205,-1.8832,-0.1633,708.0075,50.37559102,16.28176205,0.00000000,
15:07:00:139,0.0419,0.2368,0.8248,-0.6205,-1.8832,-0.1633,708.0075,50.37559102,16.28176205,0.00000000,
15:07:00:144,0.0419,0.2368,0.8248,-0.6365,-1.3530,-1.5305,708.0075,50.37559102,16.28176205,0.00000000,
15:07:00:161,-0.0317,0.2776,0.8154,-0.6365,-1.3530,-1.5305,708.0075,50.37559102,16.28176205,0.00000000,
15:07:00:164,0.0796,0.2909,0.7776,-0.6365,-1.3530,-1.5305,708.0075,50.37559102,16.28176205,0.00000000,
15:07:00:167,0.1384,0.3207,0.7189,-0.6365,-1.3530,-1.5305,708.0075,50.37559102,16.28176205,0.00000000,
15:07:00:172,0.0809,0.3594,0.7195,-0.6365,-1.3530,-1.5305,708.0075,50.37559102,16.28176205,0.00000000,
15:07:00:188,0.0809,0.3594,0.7195,-0.6365,-1.3530,-1.5305,591.0300,50.37559102,16.28176205,0.00000000,
15:07:00:190,0.0550,0.3671,0.7398,-0.6365,-1.3530,-1.5305,591.0300,50.37559102,16.28176205,0.00000000,
15:07:00:208,0.0550,0.3671,0.7398,-0.6365,-1.3530,-1.5305,591.0300,50.37559102,16.28176205,0.00000000,
15:07:00:212,0.0550,0.3671,0.7398,-0.8519,-0.5773,-1.7581,591.0300,50.37559102,16.28176205,0.00000000,
15:07:00:254,0.0781,0.3904,0.7078,-0.8519,-0.5773,-1.7581,591.0300,50.37559102,16.28176205,0.00000000,
15:07:00:256,0.1691,0.4107,0.6778,-0.8519,-0.5773,-1.7581,591.0300,50.37559102,16.28176205,0.00000000,
15:07:00:258,0.1840,0.4111,0.5361,-0.8519,-0.5773,-1.7581,591.0300,50.37559102,16.28176205,0.00000000,
15:07:00:277,0.1840,0.4111,0.5361,-0.8519,-0.5773,-1.7581,591.0300,50.37559102,16.28176205,0.00000000,
15:07:00:280,0.1840,0.4111,0.5361,-0.6116,0.1931,-1.9827,591.0300,50.37559102,16.28176205,0.00000000,
15:07:00:321,0.1792,0.4300,0.6612,-0.6116,0.1931,-1.9827,591.0300,50.37559102,16.28176205,0.00000000,
15:07:00:323,0.1966,0.4122,0.7846,-0.6116,0.1931,-1.9827,591.0300,50.37559102,16.28176205,0.00000000,
15:07:00:325,0.2147,0.4361,0.7999,-0.6116,0.1931,-1.9827,591.0300,50.37559102,16.28176205,0.00000000,
15:07:00:342,0.2147,0.4361,0.7999,-0.6116,0.1931,-1.9827,591.0300,50.37559102,16.28176205,0.00000000,
15:07:00:347,0.2147,0.4361,0.7999,-0.6116,0.1931,-1.9827,530.0100,50.37559102,16.28176205,0.00000000,
15:07:00:349,0.2147,0.4361,0.7999,0.3013,0.5636,-2.4214,530.0100,50.37559102,16.28176205,0.00000000,
15:07:00:352,0.2131,0.4479,0.7714,0.3013,0.5636,-2.4214,530.0100,50.37559102,16.28176205,0.00000000,
15:07:00:411,0.2131,0.4479,0.7714,0.3013,0.5636,-2.4214,530.0100,50.37559102,16.28176205,0.00000000,
15:07:00:414,0.1856,0.4593,0.7374,0.3013,0.5636,-2.4214,530.0100,50.37559102,16.28176205,0.00000000,
15:07:00:417,0.3132,0.4745,0.7507,0.3013,0.5636,-2.4214,530.0100,50.37559102,16.28176205,0.00000000,
15:07:00:419,0.5348,0.4932,0.8901,0.3013,0.5636,-2.4214,530.0100,50.37559102,16.28176205,0.00000000,
15:07:00:422,0.5348,0.4932,0.8901,0.4981,0.6652,-0.9845,530.0100,50.37559102,16.28176205,0.00000000,
15:07:00:479,0.5348,0.4932,0.8901,0.4981,0.6652,-0.9845,530.0100,50.37559102,16.28176205,0.00000000,
15:07:00:482,0.1076,0.5142,0.9820,0.4981,0.6652,-0.9845,530.0100,50.37559102,16.28176205,0.00000000,
15:07:00:486,0.1800,0.5330,0.8310,0.4981,0.6652,-0.9845,530.0100,50.37559102,16.28176205,0.00000000,
15:07:00:490,0.2370,0.5512,0.7084,0.4981,0.6652,-0.9845,530.0100,50.37559102,16.28176205,0.00000000,
15:07:00:493,0.2633,0.5440,0.7025,0.4981,0.6652,-0.9845,530.0100,50.37559102,16.28176205,0.00000000,
15:07:00:496,0.2633,0.5440,0.7025,1.1706,0.8556,-0.0043,530.0100,50.37559102,16.28176205,0.00000000,
15:07:00:507,0.2633,0.5440,0.7025,1.1706,0.8556,-0.0043,505.9800,50.37559102,16.28176205,0.00000000,
15:07:00:509,0.2194,0.5395,0.7691,1.1706,0.8556,-0.0043,505.9800,50.37559102,16.28176205,0.00000000,
15:07:00:546,0.2194,0.5395,0.7691,1.1706,0.8556,-0.0043,505.9800,50.37559102,16.28176205,0.00000000,
15:07:00:551,0.2194,0.5395,0.7691,0.1411,1.1629,-0.9684,505.9800,50.37559102,16.28176205,0.00000000,
15:07:00:574,0.2155,0.5187,0.8231,0.1411,1.1629,-0.9684,505.9800,50.37559102,16.28176205,0.00000000,
15:07:00:577,0.2039,0.4942,0.8515,0.1411,1.1629,-0.9684,505.9800,50.37559102,16.28176205,0.00000000,
15:07:00:580,0.2090,0.4913,0.7959,0.1411,1.1629,-0.9684,505.9800,50.37559102,16.28176205,0.00000000,
15:07:00:615,0.2090,0.4913,0.7959,0.1411,1.1629,-0.9684,505.9800,50.37559102,16.28176205,0.00000000,
15:07:00:619,0.2090,0.4913,0.7959,-0.0551,0.7415,-0.1976,505.9800,50.37559102,16.28176205,0.00000000,
15:07:00:641,0.2215,0.5176,0.6879,-0.0551,0.7415,-0.1976,505.9800,50.37559102,16.28176205,0.00000000,
15:07:00:643,0.2899,0.5139,0.6458,-0.0551,0.7415,-0.1976,505.9800,50.37559102,16.28176205,0.00000000,
15:07:00:645,0.3547,0.4595,0.7656,-0.0551,0.7415,-0.1976,505.9800,50.37559102,16.28176205,0.00000000,
15:07:00:668,0.3547,0.4595,0.7656,-0.0551,0.7415,-0.1976,479.9925,50.37559102,16.28176205,0.00000000,
15:07:00:670,0.2847,0.4387,0.7999,-0.0551,0.7415,-0.1976,479.9925,50.37559102,16.28176205,0.00000000,
15:07:00:683,0.2847,0.4387,0.7999,-0.0551,0.7415,-0.1976,479.9925,50.37559102,16.28176205,0.00000000,
15:07:00:687,0.2847,0.4387,0.7999,0.7794,0.5808,-1.2900,479.9925,50.37559102,16.28176205,0.00000000,
15:07:00:735,0.2383,0.4473,0.7603,0.7794,0.5808,-1.2900,479.9925,50.37559102,16.28176205,0.00000000,
15:07:00:737,0.2269,0.4049,0.6817,0.7794,0.5808,-1.2900,479.9925,50.37559102,16.28176205,0.00000000,
15:07:00:739,0.2006,0.3762,0.7307,0.7794,0.5808,-1.2900,479.9925,50.37559102,16.28176205,0.00000000,
15:07:00:741,0.2027,0.3827,0.8162,0.7794,0.5808,-1.2900,479.9925,50.37559102,16.28176205,0.00000000,
15:07:00:750,0.2027,0.3827,0.8162,0.7794,0.5808,-1.2900,479.9925,50.37559102,16.28176205,0.00000000,
15:07:00:754,0.2027,0.3827,0.8162,0.9324,0.2038,-0.8281,479.9925,50.37559102,16.28176205,0.00000000,
15:07:00:801,0.1532,0.4519,0.8582,0.9324,0.2038,-0.8281,479.9925,50.37559102,16.28176205,0.00000000,
15:07:00:804,0.0643,0.4750,0.8798,0.9324,0.2038,-0.8281,479.9925,50.37559102,16.28176205,0.00000000,
15:07:00:806,0.1171,0.4535,0.8943,0.9324,0.2038,-0.8281,479.9925,50.37559102,16.28176205,0.00000000,
15:07:00:819,0.1171,0.4535,0.8943,0.9324,0.2038,-0.8281,479.9925,50.37559102,16.28176205,0.00000000,
15:07:00:822,0.1171,0.4535,0.8943,0.6585,-0.1711,-0.5218,479.9925,50.37559102,16.28176205,0.00000000,
15:07:00:827,0.1171,0.4535,0.8943,0.6585,-0.1711,-0.5218,511.9875,50.37559102,16.28176205,0.00000000,
15:07:00:829,0.1767,0.4042,0.8849,0.6585,-0.1711,-0.5218,511.9875,50.37559102,16.28176205,0.00000000,
15:07:00:889,0.1767,0.4042,0.8849,0.6585,-0.1711,-0.5218,511.9875,50.37559102,16.28176205,0.00000000,
15:07:00:891,0.1767,0.4042,0.8849,0.4575,0.1820,0.3173,511.9875,50.37559102,16.28176205,0.00000000,
15:07:00:893,0.2167,0.3978,0.8933,0.4575,0.1820,0.3173,511.9875,50.37559102,16.28176205,0.00000000,
15:07:00:896,0.2353,0.4162,0.9079,0.4575,0.1820,0.3173,511.9875,50.37559102,16.28176205,0.00000000,
15:07:00:898,0.2406,0.4577,0.8972,0.4575,0.1820,0.3173,511.9875,50.37559102,16.28176205,0.00000000,
15:07:00:953,0.2406,0.4577,0.8972,0.4575,0.1820,0.3173,511.9875,50.37559102,16.28176205,0.00000000,
15:07:00:956,0.1955,0.4608,0.8910,0.4575,0.1820,0.3173,511.9875,50.37559102,16.28176205,0.00000000,
15:07:00:958,0.1525,0.4778,0.9304,0.4575,0.1820,0.3173,511.9875,50.37559102,16.28176205,0.00000000,
15:07:00:959,0.1351,0.4828,0.9869,0.4575,0.1820,0.3173,511.9875,50.37559102,16.28176205,0.00000000,
15:07:00:960,0.1351,0.4828,0.9869,1.6895,0.3355,0.2412,511.9875,50.37559102,16.28176205,0.00000000,
15:07:00:975,0.1207,0.4676,1.0270,1.6895,0.3355,0.2412,511.9875,50.37559102,16.28176205,0.00000000,
15:07:00:987,0.1207,0.4676,1.0270,1.6895,0.3355,0.2412,591.0300,50.37559102,16.28176205,0.00000000,
15:07:01:021,0.1207,0.4676,1.0270,1.6895,0.3355,0.2412,591.0300,50.37559102,16.28176205,0.00000000,
15:07:01:025,0.1207,0.4676,1.0270,0.9830,0.7678,0.6940,591.0300,50.37559102,16.28176205,0.00000000,
15:07:01:054,0.1367,0.4617,1.0208,0.9830,0.7678,0.6940,591.0300,50.37559102,16.28176205,0.00000000,
15:07:01:058,0.1213,0.4592,0.9934,0.9830,0.7678,0.6940,591.0300,50.37559102,16.28176205,0.00000000,
15:07:01:059,0.0619,0.4903,0.9581,0.9830,0.7678,0.6940,591.0300,50.37559102,16.28176205,0.00000000,
15:07:01:061,0.0092,0.5257,0.9201,0.9830,0.7678,0.6940,591.0300,50.37559102,16.28176205,0.00000000,
15:07:01:089,0.0092,0.5257,0.9201,0.9830,0.7678,0.6940,591.0300,50.37559102,16.28176205,0.00000000,
15:07:01:094,0.0092,0.5257,0.9201,0.8660,0.5050,1.0061,591.0300,50.37559102,16.28176205,0.00000000,
15:07:01:121,-0.0537,0.5102,0.8828,0.8660,0.5050,1.0061,591.0300,50.37559102,16.28176205,0.00000000,
15:07:01:124,-0.0436,0.4855,0.9150,0.8660,0.5050,1.0061,591.0300,50.37559102,16.28176205,0.00000000,
15:07:01:126,-0.0412,0.4316,0.9526,0.8660,0.5050,1.0061,591.0300,50.37559102,16.28176205,0.00000000,
15:07:01:147,-0.0412,0.4316,0.9526,0.8660,0.5050,1.0061,659.0025,50.37559102,16.28176205,0.00000000,
15:07:01:151,-0.0283,0.3809,0.9417,0.8660,0.5050,1.0061,659.0025,50.37559102,16.28176205,0.00000000,
15:07:01:157,-0.0283,0.3809,0.9417,0.8660,0.5050,1.0061,659.0025,50.37559102,16.28176205,0.00000000,
15:07:01:162,-0.0283,0.3809,0.9417,-0.2546,0.6817,0.1556,659.0025,50.37559102,16.28176205,0.00000000,
15:07:01:214,0.0020,0.3814,0.9205,-0.2546,0.6817,0.1556,659.0025,50.37559102,16.28176205,0.00000000,
15:07:01:218,-0.0549,0.4300,0.9080,-0.2546,0.6817,0.1556,659.0025,50.37559102,16.28176205,0.00000000,
15:07:01:220,-0.1065,0.4616,0.9083,-0.2546,0.6817,0.1556,659.0025,50.37559102,16.28176205,0.00000000,
15:07:01:225,-0.1065,0.4616,0.9083,-0.2546,0.6817,0.1556,659.0025,50.37559102,16.28176205,0.00000000,
15:07:01:229,-0.1065,0.4616,0.9083,0.2494,-0.5515,0.5034,659.0025,50.37559102,16.28176205,0.00000000,
15:07:01:281,-0.0975,0.4684,0.8951,0.2494,-0.5515,0.5034,659.0025,50.37559102,16.28176205,0.00000000,
15:07:01:285,-0.1149,0.4721,0.8352,0.2494,-0.5515,0.5034,659.0025,50.37559102,16.28176205,0.00000000,
15:07:01:287,-0.1832,0.4611,0.8059,0.2494,-0.5515,0.5034,659.0025,50.37559102,16.28176205,0.00000000,
15:07:01:293,-0.1832,0.4611,0.8059,0.2494,-0.5515,0.5034,659.0025,50.37559102,16.28176205,0.00000000,
15:07:01:297,-0.1832,0.4611,0.8059,0.0966,-0.2020,0.2786,659.0025,50.37559102,16.28176205,0.00000000,
15:07:01:307,-0.1832,0.4611,0.8059,0.0966,-0.2020,0.2786,783.0001,50.37559102,16.28176205,0.00000000,
15:07:01:310,-0.2181,0.4875,0.7827,0.0966,-0.2020,0.2786,783.0001,50.37559102,16.28176205,0.00000000,
15:07:01:311,-0.1942,0.5187,0.8341,0.0966,-0.2020,0.2786,783.0001,50.37559102,16.28176205,0.00000000,
15:07:01:361,-0.1942,0.5187,0.8341,0.0966,-0.2020,0.2786,783.0001,50.37559102,16.28176205,0.00000000,
15:07:01:365,-0.1942,0.5187,0.8341,-0.7112,-0.3402,-0.3584,783.0001,50.37559102,16.28176205,0.00000000,
15:07:01:374,-0.1911,0.5121,0.8416,-0.7112,-0.3402,-0.3584,783.0001,50.37559102,16.28176205,0.00000000,
15:07:01:378,-0.1868,0.5181,0.8118,-0.7112,-0.3402,-0.3584,783.0001,50.37559102,16.28176205,0.00000000,
15:07:01:381,-0.1735,0.5803,0.7401,-0.7112,-0.3402,-0.3584,783.0001,50.37559102,16.28176205,0.00000000,
15:07:01:428,-0.1735,0.5803,0.7401,-0.7112,-0.3402,-0.3584,783.0001,50.37559102,16.28176205,0.00000000,
15:07:01:432,-0.1735,0.5803,0.7401,-0.6011,-0.0284,-0.1654,783.0001,50.37559102,16.28176205,0.00000000,
15:07:01:441,-0.2102,0.6633,0.6539,-0.6011,-0.0284,-0.1654,783.0001,50.37559102,16.28176205,0.00000000,
15:07:01:445,-0.2591,0.7457,0.6113,-0.6011,-0.0284,-0.1654,783.0001,50.37559102,16.28176205,0.00000000,
15:07:01:448,-0.2179,0.6379,0.6986,-0.6011,-0.0284,-0.1654,783.0001,50.37559102,16.28176205,0.00000000,
15:07:01:468,-0.2179,0.6379,0.6986,-0.6011,-0.0284,-0.1654,850.0275,50.37559102,16.28176205,0.00000000,
15:07:01:470,-0.1901,0.6085,0.8788,-0.6011,-0.0284,-0.1654,850.0275,50.37559102,16.28176205,0.00000000,
15:07:01:497,-0.1901,0.6085,0.8788,-0.6011,-0.0284,-0.1654,850.0275,50.37559102,16.28176205,0.00000000,
15:07:01:500,-0.1901,0.6085,0.8788,-0.9242,1.1635,-1.4113,850.0275,50.37559102,16.28176205,0.00000000,
15:07:01:534,-0.2624,0.6498,0.9986,-0.9242,1.1635,-1.4113,850.0275,50.37559102,16.28176205,0.00000000,
15:07:01:538,-0.2951,0.6564,1.0857,-0.9242,1.1635,-1.4113,850.0275,50.37559102,16.28176205,0.00000000,
15:07:01:541,-0.1951,0.5519,0.9952,-0.9242,1.1635,-1.4113,850.0275,50.37559102,16.28176205,0.00000000,
15:07:01:564,-0.1951,0.5519,0.9952,-0.9242,1.1635,-1.4113,850.0275,50.37559102,16.28176205,0.00000000,
15:07:01:569,-0.1951,0.5519,0.9952,-0.8371,0.2488,1.9901,850.0275,50.37559102,16.28176205,0.00000000,
15:07:01:601,-0.1808,0.5662,0.8559,-0.8371,0.2488,1.9901,850.0275,50.37559102,16.28176205,0.00000000,
15:07:01:604,-0.3141,0.6594,0.7138,-0.8371,0.2488,1.9901,850.0275,50.37559102,16.28176205,0.00000000,
15:07:01:605,-0.2574,0.6059,0.6398,-0.8371,0.2488,1.9901,850.0275,50.37559102,16.28176205,0.00000000,
15:07:01:627,-0.2574,0.6059,0.6398,-0.8371,0.2488,1.9901,903.0150,50.37559102,16.28176205,0.00000000,
15:07:01:631,-0.2628,0.5414,0.6889,-0.8371,0.2488,1.9901,903.0150,50.37559102,16.28176205,0.00000000,
15:07:01:634,-0.2829,0.5503,0.8485,-0.8371,0.2488,1.9901,903.0150,50.37559102,16.28176205,0.00000000,
15:07:01:638,-0.2829,0.5503,0.8485,-0.8371,0.2488,1.9901,903.0150,50.37559102,16.28176205,0.00000000,
15:07:01:640,-0.2829,0.5503,0.8485,-0.2683,0.1279,0.1620,903.0150,50.37559102,16.28176205,0.00000000,
15:07:01:694,-0.3526,0.5446,0.9827,-0.2683,0.1279,0.1620,903.0150,50.37559102,16.28176205,0.00000000,
15:07:01:697,-0.3876,0.5259,1.0048,-0.2683,0.1279,0.1620,903.0150,50.37559102,16.28176205,0.00000000,
15:07:01:700,-0.4006,0.5275,0.9328,-0.2683,0.1279,0.1620,903.0150,50.37559102,16.28176205,0.00000000,
15:07:01:702,-0.4006,0.5275,0.9328,-0.2683,0.1279,0.1620,903.0150,50.37559102,16.28176205,0.00000000,
15:07:01:704,-0.4006,0.5275,0.9328,-0.3942,-0.0062,-0.3128,903.0150,50.37559102,16.28176205,0.00000000,
15:07:01:761,-0.3137,0.4732,0.8708,-0.3942,-0.0062,-0.3128,903.0150,50.37559102,16.28176205,0.00000000,
15:07:01:763,-0.2404,0.4304,0.8332,-0.3942,-0.0062,-0.3128,903.0150,50.37559102,16.28176205,0.00000000,
15:07:01:765,-0.2716,0.3934,0.7999,-0.3942,-0.0062,-0.3128,903.0150,50.37559102,16.28176205,0.00000000,
15:07:01:768,-0.2716,0.3934,0.7999,-0.3942,-0.0062,-0.3128,903.0150,50.37559102,16.28176205,0.00000000,
15:07:01:772,-0.2716,0.3934,0.7999,-1.0191,0.0828,0.9869,903.0150,50.37559102,16.28176205,0.00000000,
15:07:01:787,-0.2716,0.3934,0.7999,-1.0191,0.0828,0.9869,994.0051,50.37559102,16.28176205,0.00000000,
15:07:01:788,-0.3213,0.3848,0.8710,-1.0191,0.0828,0.9869,994.0051,50.37559102,16.28176205,0.00000000,
15:07:01:836,-0.3213,0.3848,0.8710,-1.0191,0.0828,0.9869,994.0051,50.37559102,16.28176205,0.00000000,
15:07:01:840,-0.3213,0.3848,0.8710,0.4102,-0.3533,-0.2447,994.0051,50.37559102,16.28176205,0.00000000,
15:07:01:854,-0.3330,0.3651,1.0702,0.4102,-0.3533,-0.2447,994.0051,50.37559102,16.28176205,0.00000000,
15:07:01:856,-0.3473,0.3192,1.1803,0.4102,-0.3533,-0.2447,994.0051,50.37559102,16.28176205,0.00000000,
15:07:01:857,-0.4186,0.2500,1.0165,0.4102,-0.3533,-0.2447,994.0051,50.37559102,16.28176205,0.00000000,
15:07:01:903,-0.4186,0.2500,1.0165,0.4102,-0.3533,-0.2447,994.0051,50.37559102,16.28176205,0.00000000,
15:07:01:906,-0.4186,0.2500,1.0165,0.2394,-0.3260,1.7597,994.0051,50.37559102,16.28176205,0.00000000,
15:07:01:921,-0.5419,0.1864,0.8194,0.2394,-0.3260,1.7597,994.0051,50.37559102,16.28176205,0.00000000,
15:07:01:923,-0.6038,0.1466,0.8747,0.2394,-0.3260,1.7597,994.0051,50.37559102,16.28176205,0.00000000,
15:07:01:925,-0.5303,-0.0095,0.9492,0.2394,-0.3260,1.7597,994.0051,50.37559102,16.28176205,0.00000000,
15:07:01:926,-0.4217,-0.1055,0.9838,0.2394,-0.3260,1.7597,994.0051,50.37559102,16.28176205,0.00000000,
15:07:01:946,-0.4217,-0.1055,0.9838,0.2394,-0.3260,1.7597,1109.9701,50.37559102,16.28176205,0.00000000,
15:07:01:949,-0.4026,-0.1208,0.9065,0.2394,-0.3260,1.7597,1109.9701,50.37559102,16.28176205,0.00000000,
15:07:01:962,-0.4421,-0.1632,0.9212,0.2394,-0.3260,1.7597,1109.9701,50.37559102,16.28176205,0.00000000,
15:07:01:971,-0.4421,-0.1632,0.9212,0.2394,-0.3260,1.7597,1109.9701,50.37559102,16.28176205,0.00000000,
15:07:01:974,-0.4421,-0.1632,0.9212,-1.0069,-0.9224,-0.2561,1109.9701,50.37559102,16.28176205,0.00000000,
15:07:02:032,-0.4201,-0.2000,1.0278,-1.0069,-0.9224,-0.2561,1109.9701,50.37559102,16.28176205,0.00000000,
15:07:02:035,-0.3605,-0.2253,1.0924,-1.0069,-0.9224,-0.2561,1109.9701,50.37559102,16.28176205,0.00000000,
15:07:02:039,-0.3217,-0.2516,1.0542,-1.0069,-0.9224,-0.2561,1109.9701,50.37559102,16.28176205,0.00000000,
15:07:02:040,-0.3217,-0.2516,1.0542,-1.0069,-0.9224,-0.2561,1109.9701,50.37559102,16.28176205,0.00000000,
15:07:02:043,-0.3217,-0.2516,1.0542,0.2225,-1.1780,0.0943,1109.9701,50.37559102,16.28176205,0.00000000,
15:07:02:096,-0.3399,-0.2704,0.9077,0.2225,-1.1780,0.0943,1109.9701,50.37559102,16.28176205,0.00000000,
15:07:02:098,-0.3109,-0.3483,0.6741,0.2225,-1.1780,0.0943,1109.9701,50.37559102,16.28176205,0.00000000,
15:07:02:100,-0.3181,-0.3913,0.5873,0.2225,-1.1780,0.0943,1109.9701,50.37559102,16.28176205,0.00000000,
15:07:02:105,-0.3181,-0.3913,0.5873,0.2225,-1.1780,0.0943,1109.9701,50.37559102,16.28176205,0.00000000,
15:07:02:107,-0.3181,-0.3913,0.5873,0.2225,-1.1780,0.0943,1185.9751,50.37559102,16.28176205,0.00000000,
15:07:02:110,-0.3181,-0.3913,0.5873,0.7677,-0.0704,1.0830,1185.9751,50.37559102,16.28176205,0.00000000,
15:07:02:174,-0.3181,-0.3913,0.5873,0.7677,-0.0704,1.0830,1185.9751,50.37559102,16.28176205,0.00000000,
15:07:02:176,-0.4347,-0.4084,0.6093,0.7677,-0.0704,1.0830,1185.9751,50.37559102,16.28176205,0.00000000,
15:07:02:178,-0.5520,-0.4552,0.6799,0.7677,-0.0704,1.0830,1185.9751,50.37559102,16.28176205,0.00000000,
15:07:02:179,-0.7279,-0.4755,0.8222,0.7677,-0.0704,1.0830,1185.9751,50.37559102,16.28176205,0.00000000,
15:07:02:181,-0.8536,-0.4639,0.8901,0.7677,-0.0704,1.0830,1185.9751,50.37559102,16.28176205,0.00000000,
15:07:02:182,-0.8536,-0.4639,0.8901,0.4274,0.8493,-1.7753,1185.9751,50.37559102,16.28176205,0.00000000,
15:07:02:241,-0.8676,-0.3604,0.8541,0.4274,0.8493,-1.7753,1185.9751,50.37559102,16.28176205,0.00000000,
15:07:02:243,-0.7784,-0.3363,0.7334,0.4274,0.8493,-1.7753,1185.9751,50.37559102,16.28176205,0.00000000,
15:07:02:245,-0.7292,-0.3179,0.7205,0.4274,0.8493,-1.7753,1185.9751,50.37559102,16.28176205,0.00000000,
15:07:02:248,-0.7292,-0.3179,0.7205,0.4274,0.8493,-1.7753,1185.9751,50.37559102,16.28176205,0.00000000,
15:07:02:250,-0.7292,-0.3179,0.7205,-3.0010,1.2557,0.6489,1185.9751,50.37559102,16.28176205,0.00000000,
15:07:02:268,-0.7292,-0.3179,0.7205,-3.0010,1.2557,0.6489,1134.0000,50.37559102,16.28176205,0.00000000,
15:07:02:270,-0.6576,-0.2859,0.8006,-3.0010,1.2557,0.6489,1134.0000,50.37559102,16.28176205,0.00000000,
15:07:02:310,-0.6576,-0.2859,0.8006,-3.0010,1.2557,0.6489,1134.0000,50.37559102,16.28176205,0.00000000,
15:07:02:314,-0.6576,-0.2859,0.8006,-2.9283,3.0651,1.0543,1134.0000,50.37559102,16.28176205,0.00000000,
15:07:02:335,-0.6783,-0.3002,0.8303,-2.9283,3.0651,1.0543,1134.0000,50.37559102,16.28176205,0.00000000,
15:07:02:337,-0.6831,-0.2975,0.8450,-2.9283,3.0651,1.0543,1134.0000,50.37559102,16.28176205,0.00000000,
15:07:02:339,-0.6174,-0.2875,0.8766,-2.9283,3.0651,1.0543,1134.0000,50.37559102,16.28176205,0.00000000,
15:07:02:378,-0.6174,-0.2875,0.8766,-2.9283,3.0651,1.0543,1134.0000,50.37559102,16.28176205,0.00000000,
15:07:02:381,-0.6174,-0.2875,0.8766,-1.3575,3.3138,2.1514,1134.0000,50.37559102,16.28176205,0.00000000,
15:07:02:400,-0.6552,-0.2775,0.9116,-1.3575,3.3138,2.1514,1134.0000,50.37559102,16.28176205,0.00000000,
15:07:02:401,-0.6668,-0.3022,0.9062,-1.3575,3.3138,2.1514,1134.0000,50.37559102,16.28176205,0.00000000,
15:07:02:402,-0.6096,-0.3527,0.7645,-1.3575,3.3138,2.1514,1134.0000,50.37559102,16.28176205,0.00000000,
15:07:02:428,-0.6096,-0.3527,0.7645,-1.3575,3.3138,2.1514,1040.9850,50.37559102,16.28176205,0.00000000,
15:07:02:431,-0.6185,-0.3705,0.5295,-1.3575,3.3138,2.1514,1040.9850,50.37559102,16.28176205,0.00000000,
15:07:02:446,-0.6185,-0.3705,0.5295,-1.3575,3.3138,2.1514,1040.9850,50.37559102,16.28176205,0.00000000,
15:07:02:450,-0.6185,-0.3705,0.5295,-0.5273,2.8613,2.6965,1040.9850,50.37559102,16.28176205,0.00000000,
15:07:02:494,-0.6931,-0.3843,0.3825,-0.5273,2.8613,2.6965,1040.9850,50.37559102,16.28176205,0.00000000,
15:07:02:499,-0.8168,-0.4109,0.3969,-0.5273,2.8613,2.6965,1040.9850,50.37559102,16.28176205,0.00000000,
15:07:02:502,-0.8532,-0.4712,0.4747,-0.5273,2.8613,2.6965,1040.9850,50.37559102,16.28176205,0.00000000,
15:07:02:505,-0.5378,-0.5515,0.5303,-0.5273,2.8613,2.6965,1040.9850,50.37559102,16.28176205,0.00000000,
15:07:02:513,-0.5378,-0.5515,0.5303,-0.5273,2.8613,2.6965,1040.9850,50.37559102,16.28176205,0.00000000,
15:07:02:518,-0.5378,-0.5515,0.5303,-0.2950,1.7047,-0.6432,1040.9850,50.37559102,16.28176205,0.00000000,
15:07:02:561,-0.3182,-0.5697,0.5599,-0.2950,1.7047,-0.6432,1040.9850,50.37559102,16.28176205,0.00000000,
15:07:02:566,-0.4775,-0.5467,0.6894,-0.2950,1.7047,-0.6432,1040.9850,50.37559102,16.28176205,0.00000000,
15:07:02:569,-0.7627,-0.5087,0.8048,-0.2950,1.7047,-0.6432,1040.9850,50.37559102,16.28176205,0.00000000,
15:07:02:581,-0.7627,-0.5087,0.8048,-0.2950,1.7047,-0.6432,1040.9850,50.37559102,16.28176205,0.00000000,
15:07:02:585,-0.7627,-0.5087,0.8048,1.4575,0.0287,0.4823,1040.9850,50.37559102,16.28176205,0.00000000,
15:07:02:589,-0.7627,-0.5087,0.8048,1.4575,0.0287,0.4823,1066.9725,50.37559102,16.28176205,0.00000000,
15:07:02:590,-0.7627,-0.5666,0.7182,1.4575,0.0287,0.4823,1066.9725,50.37559102,16.28176205,0.00000000,
15:07:02:649,-0.7627,-0.5666,0.7182,1.4575,0.0287,0.4823,1066.9725,50.37559102,16.28176205,0.00000000,
15:07:02:654,-0.7627,-0.5666,0.7182,0.6765,-0.8021,2.5037,1066.9725,50.37559102,16.28176205,0.00000000,
15:07:02:657,-0.7894,-0.6493,0.5889,0.6765,-0.8021,2.5037,1066.9725,50.37559102,16.28176205,0.00000000,
15:07:02:660,-0.7825,-0.6335,0.6013,0.6765,-0.8021,2.5037,1066.9725,50.37559102,16.28176205,0.00000000,
15:07:02:664,-0.5840,-0.5930,0.6428,0.6765,-0.8021,2.5037,1066.9725,50.37559102,16.28176205,0.00000000,
15:07:02:716,-0.5840,-0.5930,0.6428,0.6765,-0.8021,2.5037,1066.9725,50.37559102,16.28176205,0.00000000,
15:07:02:721,-0.5840,-0.5930,0.6428,1.4525,-1.6255,1.3160,1066.9725,50.37559102,16.28176205,0.00000000,
15:07:02:723,-0.3727,-0.4697,0.5062,1.4525,-1.6255,1.3160,1066.9725,50.37559102,16.28176205,0.00000000,
15:07:02:725,-0.2748,-0.5559,0.4303,1.4525,-1.6255,1.3160,1066.9725,50.37559102,16.28176205,0.00000000,
15:07:02:727,-0.2014,-0.5261,0.3456,1.4525,-1.6255,1.3160,1066.9725,50.37559102,16.28176205,0.00000000,
15:07:02:747,-0.2014,-0.5261,0.3456,1.4525,-1.6255,1.3160,1088.9775,50.37559102,16.28176205,0.00000000,
15:07:02:750,0.2738,-0.7846,0.2119,1.4525,-1.6255,1.3160,1088.9775,50.37559102,16.28176205,0.00000000,
15:07:02:752,0.5416,-0.9819,0.0214,1.4525,-1.6255,1.3160,1088.9775,50.37559102,16.28176205,0.00000000,
15:07:02:785,0.5416,-0.9819,0.0214,1.4525,-1.6255,1.3160,1088.9775,50.37559102,16.28176205,0.00000000,
15:07:02:788,0.5416,-0.9819,0.0214,4.8984,-0.3600,-1.3440,1088.9775,50.37559102,16.28176205,0.00000000,
15:07:02:814,0.1256,-1.0641,-0.0284,4.8984,-0.3600,-1.3440,1088.9775,50.37559102,16.28176205,0.00000000,
15:07:02:819,-0.3754,-1.2128,0.0512,4.8984,-0.3600,-1.3440,1088.9775,50.37559102,16.28176205,0.00000000,
15:07:02:822,-0.7642,-1.1276,0.0438,4.8984,-0.3600,-1.3440,1088.9775,50.37559102,16.28176205,0.00000000,
15:07:02:852,-0.7642,-1.1276,0.0438,4.8984,-0.3600,-1.3440,1088.9775,50.37559102,16.28176205,0.00000000,
15:07:02:857,-0.7642,-1.1276,0.0438,5.4361,-3.3631,-3.8943,1088.9775,50.37559102,16.28176205,0.00000000,
15:07:02:881,-0.8427,-1.0720,-0.0562,5.4361,-3.3631,-3.8943,1088.9775,50.37559102,16.28176205,0.00000000,
15:07:02:885,-0.8831,-0.9752,0.0002,5.4361,-3.3631,-3.8943,1088.9775,50.37559102,16.28176205,0.00000000,
15:07:02:886,-1.1331,-0.8092,0.1510,5.4361,-3.3631,-3.8943,1088.9775,50.37559102,16.28176205,0.00000000,
15:07:02:907,-1.1331,-0.8092,0.1510,5.4361,-3.3631,-3.8943,1077.9751,50.37559102,16.28176205,0.00000000,
15:07:02:909,-1.3483,-0.6775,0.5209,5.4361,-3.3631,-3.8943,1077.9751,50.37559102,16.28176205,0.00000000,
15:07:02:920,-1.3483,-0.6775,0.5209,5.4361,-3.3631,-3.8943,1077.9751,50.37559102,16.28176205,0.00000000,
15:07:02:924,-1.3483,-0.6775,0.5209,-3.6869,-2.2194,-2.6551,1077.9751,50.37559102,16.28176205,0.00000000,
15:07:02:973,-1.4798,-0.5113,1.0306,-3.6869,-2.2194,-2.6551,1077.9751,50.37559102,16.28176205,0.00000000,
15:07:02:975,-1.4079,-0.4408,1.3730,-3.6869,-2.2194,-2.6551,1077.9751,50.37559102,16.28176205,0.00000000,
15:07:02:976,-1.2337,-0.4940,1.5376,-3.6869,-2.2194,-2.6551,1077.9751,50.37559102,16.28176205,0.00000000,
15:07:02:985,-1.1292,-0.6024,1.5970,-3.6869,-2.2194,-2.6551,1077.9751,50.37559102,16.28176205,0.00000000,
15:07:02:987,-1.1292,-0.6024,1.5970,-3.6869,-2.2194,-2.6551,1077.9751,50.37559102,16.28176205,0.00000000,
15:07:02:991,-1.1292,-0.6024,1.5970,-6.4867,0.8566,3.7768,1077.9751,50.37559102,16.28176205,0.00000000,
15:07:03:040,-0.8736,-0.7680,1.4336,-6.4867,0.8566,3.7768,1077.9751,50.37559102,16.28176205,0.00000000,
15:07:03:043,-0.3065,-0.8728,0.8469,-6.4867,0.8566,3.7768,1077.9751,50.37559102,16.28176205,0.00000000,
15:07:03:055,-0.3065,-0.8728,0.8469,-6.4867,0.8566,3.7768,1077.9751,50.37559102,16.28176205,0.00000000,
15:07:03:059,-0.3065,-0.8728,0.8469,-2.9604,-0.3159,10.4158,1077.9751,50.37559102,16.28176205,0.00000000,
15:07:03:070,-0.3065,-0.8728,0.8469,-2.9604,-0.3159,10.4158,1019.9926,50.37559102,16.28176205,0.00000000,
15:07:03:072,-0.1754,-0.8357,0.3070,-2.9604,-0.3159,10.4158,1019.9926,50.37559102,16.28176205,0.00000000,
15:07:03:074,-1.0713,-0.7702,0.3800,-2.9604,-0.3159,10.4158,1019.9926,50.37559102,16.28176205,0.00000000,
15:07:03:124,-1.0713,-0.7702,0.3800,-2.9604,-0.3159,10.4158,1019.9926,50.37559102,16.28176205,0.00000000,
15:07:03:128,-1.0713,-0.7702,0.3800,3.9293,-4.7106,1.0367,1019.9926,50.37559102,16.28176205,0.00000000,
15:07:03:142,-0.9767,-0.6384,0.0678,3.9293,-4.7106,1.0367,1019.9926,50.37559102,16.28176205,0.00000000,
15:07:03:145,-0.7160,-0.4758,-0.1705,3.9293,-4.7106,1.0367,1019.9926,50.37559102,16.28176205,0.00000000,
15:07:03:148,-0.5790,-0.4190,-0.2858,3.9293,-4.7106,1.0367,1019.9926,50.37559102,16.28176205,0.00000000,
15:07:03:192,-0.5790,-0.4190,-0.2858,3.9293,-4.7106,1.0367,1019.9926,50.37559102,16.28176205,0.00000000,
15:07:03:195,-0.5790,-0.4190,-0.2858,1.0620,-2.2167,-5.8998,1019.9926,50.37559102,16.28176205,0.00000000,
15:07:03:201,-0.5087,-0.4683,-0.1102,1.0620,-2.2167,-5.8998,1019.9926,50.37559102,16.28176205,0.00000000,
15:07:03:203,-0.5131,-0.3634,0.1078,1.0620,-2.2167,-5.8998,1019.9926,50.37559102,16.28176205,0.00000000,
15:07:03:205,-0.6351,-0.2901,0.5424,1.0620,-2.2167,-5.8998,1019.9926,50.37559102,16.28176205,0.00000000,
15:07:03:259,-0.6351,-0.2901,0.5424,1.0620,-2.2167,-5.8998,1019.9926,50.37559102,16.28176205,0.00000000,
15:07:03:263,-0.6351,-0.2901,0.5424,2.7735,-0.9325,-2.6458,1019.9926,50.37559102,16.28176205,0.00000000,
15:07:03:268,-0.6351,-0.2901,0.5424,2.7735,-0.9325,-2.6458,601.0200,50.37559102,16.28176205,0.00000000,
15:07:03:272,-0.5888,-0.1781,1.0011,2.7735,-0.9325,-2.6458,601.0200,50.37559102,16.28176205,0.00000000,
15:07:03:274,-0.4341,-0.1096,0.5678,2.7735,-0.9325,-2.6458,601.0200,50.37559102,16.28176205,0.00000000,
15:07:03:277,-0.4245,-0.2870,0.3559,2.7735,-0.9325,-2.6458,601.0200,50.37559102,16.28176205,0.00000000,
15:07:03:329,-0.4245,-0.2870,0.3559,2.7735,-0.9325,-2.6458,601.0200,50.37559102,16.28176205,0.00000000,
15:07:03:333,-0.4245,-0.2870,0.3559,3.1290,1.0410,0.5199,601.0200,50.37559102,16.28176205,0.00000000,
15:07:03:336,-0.5297,-0.5197,0.1076,3.1290,1.0410,0.5199,601.0200,50.37559102,16.28176205,0.00000000,
15:07:03:338,-0.7172,-0.7520,0.3315,3.1290,1.0410,0.5199,601.0200,50.37559102,16.28176205,0.00000000,
15:07:03:341,-0.7490,-0.7419,0.5572,3.1290,1.0410,0.5199,601.0200,50.37559102,16.28176205,0.00000000,
15:07:03:394,-0.7490,-0.7419,0.5572,3.1290,1.0410,0.5199,601.0200,50.37559102,16.28176205,0.00000000,
15:07:03:399,-0.7490,-0.7419,0.5572,0.3027,-2.8666,-0.8311,601.0200,50.37559102,16.28176205,0.00000000,
15:07:03:402,-0.8690,-0.5833,0.6376,0.3027,-2.8666,-0.8311,601.0200,50.37559102,16.28176205,0.00000000,
15:07:03:405,-0.9360,-0.5135,0.4382,0.3027,-2.8666,-0.8311,601.0200,50.37559102,16.28176205,0.00000000,
15:07:03:408,-0.7189,-0.3722,0.4338,0.3027,-2.8666,-0.8311,601.0200,50.37559102,16.28176205,0.00000000,
15:07:03:427,-0.7189,-0.3722,0.4338,0.3027,-2.8666,-0.8311,72.9675,50.37559102,16.28176205,0.00000000,
15:07:03:431,-0.7016,-0.3929,0.5209,0.3027,-2.8666,-0.8311,72.9675,50.37559102,16.28176205,0.00000000,
15:07:03:434,-0.8660,-0.4274,0.5698,0.3027,-2.8666,-0.8311,72.9675,50.37559102,16.28176205,0.00000000,
15:07:03:463,-0.8660,-0.4274,0.5698,0.3027,-2.8666,-0.8311,72.9675,50.37559102,16.28176205,0.00000000,
15:07:03:468,-0.8660,-0.4274,0.5698,-1.3643,0.1832,-1.0055,72.9675,50.37559102,16.28176205,0.00000000,
15:07:03:494,-1.1637,-0.6276,0.6140,-1.3643,0.1832,-1.0055,72.9675,50.37559102,16.28176205,0.00000000,
15:07:03:496,-1.1213,-0.7666,0.5505,-1.3643,0.1832,-1.0055,72.9675,50.37559102,16.28176205,0.00000000,
15:07:03:498,-0.8808,-0.6853,0.4601,-1.3643,0.1832,-1.0055,72.9675,50.37559102,16.28176205,0.00000000,
15:07:03:531,-0.8808,-0.6853,0.4601,-1.3643,0.1832,-1.0055,72.9675,50.37559102,16.28176205,0.00000000,
15:07:03:535,-0.8808,-0.6853,0.4601,-3.1317,-1.1206,0.0770,72.9675,50.37559102,16.28176205,0.00000000,
15:07:03:561,-0.4988,-0.4870,0.5764,-3.1317,-1.1206,0.0770,72.9675,50.37559102,16.28176205,0.00000000,
15:07:03:565,-0.4828,-0.4135,0.5839,-3.1317,-1.1206,0.0770,72.9675,50.37559102,16.28176205,0.00000000,
15:07:03:568,-0.6141,-0.4338,0.5095,-3.1317,-1.1206,0.0770,72.9675,50.37559102,16.28176205,0.00000000,
15:07:03:587,-0.6141,-0.4338,0.5095,-3.1317,-1.1206,0.0770,71.0100,50.37559102,16.28176205,0.00000000,
15:07:03:590,-0.5146,-0.3698,0.5227,-3.1317,-1.1206,0.0770,71.0100,50.37559102,16.28176205,0.00000000,
15:07:03:599,-0.5146,-0.3698,0.5227,-3.1317,-1.1206,0.0770,71.0100,50.37559102,16.28176205,0.00000000,
15:07:03:603,-0.5146,-0.3698,0.5227,0.8535,-0.1723,-0.0302,71.0100,50.37559102,16.28176205,0.00000000,
15:07:03:618,-0.5099,-0.4025,0.5124,0.8535,-0.1723,-0.0302,71.0100,50.37559102,16.28176205,0.00000000,
15:07:03:622,-0.6122,-0.4875,0.4823,0.8535,-0.1723,-0.0302,71.0100,50.37559102,16.28176205,0.00000000,
15:07:03:654,-0.6783,-0.5310,0.5923,0.8535,-0.1723,-0.0302,71.0100,50.37559102,16.28176205,0.00000000,
15:07:03:666,-0.6783,-0.5310,0.5923,0.8535,-0.1723,-0.0302,71.0100,50.37559102,16.28176205,0.00000000,
15:07:03:671,-0.6783,-0.5310,0.5923,1.6104,0.8255,0.0373,71.0100,50.37559102,16.28176205,0.00000000,
15:07:03:721,-0.6448,-0.4890,0.5995,1.6104,0.8255,0.0373,71.0100,50.37559102,16.28176205,0.00000000,
15:07:03:725,-0.6403,-0.4206,0.5322,1.6104,0.8255,0.0373,71.0100,50.37559102,16.28176205,0.00000000,
15:07:03:727,-0.7685,-0.2787,0.4872,1.6104,0.8255,0.0373,71.0100,50.37559102,16.28176205,0.00000000,
15:07:03:728,-1.0947,-0.2097,0.5162,1.6104,0.8255,0.0373,71.0100,50.37559102,16.28176205,0.00000000,
15:07:03:734,-1.0947,-0.2097,0.5162,1.6104,0.8255,0.0373,71.0100,50.37559102,16.28176205,0.00000000,
15:07:03:737,-1.0947,-0.2097,0.5162,0.6133,-0.0463,0.6490,71.0100,50.37559102,16.28176205,0.00000000,
15:07:03:788,-0.9121,-0.2144,0.5430,0.6133,-0.0463,0.6490,71.0100,50.37559102,16.28176205,0.00000000,
15:07:03:792,-0.7431,-0.2554,0.5043,0.6133,-0.0463,0.6490,71.0100,50.37559102,16.28176205,0.00000000,
15:07:03:795,-0.7172,-0.4312,0.4130,0.6133,-0.0463,0.6490,71.0100,50.37559102,16.28176205,0.00000000,
15:07:03:802,-0.7172,-0.4312,0.4130,0.6133,-0.0463,0.6490,71.0100,50.37559102,16.28176205,0.00000000,
15:07:03:806,-0.7172,-0.4312,0.4130,-1.8810,2.5691,0.3083,71.0100,50.37559102,16.28176205,0.00000000,
15:07:03:854,-0.5727,-0.5585,0.4278,-1.8810,2.5691,0.3083,71.0100,50.37559102,16.28176205,0.00000000,
15:07:03:856,-0.4275,-0.6604,0.4275,-1.8810,2.5691,0.3083,71.0100,50.37559102,16.28176205,0.00000000,
15:07:03:858,-0.3770,-0.6445,0.4955,-1.8810,2.5691,0.3083,71.0100,50.37559102,16.28176205,0.00000000,
15:07:03:869,-0.3770,-0.6445,0.4955,-1.8810,2.5691,0.3083,71.0100,50.37559102,16.28176205,0.00000000,
15:07:03:874,-0.3770,-0.6445,0.4955,0.0801,1.4903,0.0484,71.0100,50.37559102,16.28176205,0.00000000,
15:07:03:906,-0.3770,-0.6445,0.4955,0.0801,1.4903,0.0484,72.9675,50.37559102,16.28176205,0.00000000,
15:07:03:907,-0.3299,-0.5583,0.3643,0.0801,1.4903,0.0484,72.9675,50.37559102,16.28176205,0.00000000,
15:07:03:908,-0.3545,-0.3856,0.2407,0.0801,1.4903,0.0484,72.9675,50.37559102,16.28176205,0.00000000,
15:07:03:938,-0.3545,-0.3856,0.2407,0.0801,1.4903,0.0484,72.9675,50.37559102,16.28176205,0.00000000,
15:07:03:941,-0.3545,-0.3856,0.2407,2.3943,0.1156,-0.0274,72.9675,50.37559102,16.28176205,0.00000000,
15:07:03:964,-0.5286,-0.3752,0.4250,2.3943,0.1156,-0.0274,72.9675,50.37559102,16.28176205,0.00000000,
15:07:03:966,-0.7863,-0.4736,0.6771,2.3943,0.1156,-0.0274,72.9675,50.37559102,16.28176205,0.00000000,
15:07:03:967,-1.0058,-0.6975,0.8598,2.3943,0.1156,-0.0274,72.9675,50.37559102,16.28176205,0.00000000,
15:07:03:989,-1.2698,-1.0717,1.0702,2.3943,0.1156,-0.0274,72.9675,50.37559102,16.28176205,0.00000000,
15:07:04:005,-1.2698,-1.0717,1.0702,2.3943,0.1156,-0.0274,72.9675,50.37559102,16.28176205,0.00000000,
15:07:04:009,-1.2698,-1.0717,1.0702,-0.2627,1.7503,0.6972,72.9675,50.37559102,16.28176205,0.00000000,
15:07:04:042,-1.5506,-1.3450,0.8710,-0.2627,1.7503,0.6972,72.9675,50.37559102,16.28176205,0.00000000,
15:07:04:045,-1.1100,-1.0860,0.3700,-0.2627,1.7503,0.6972,72.9675,50.37559102,16.28176205,0.00000000,
15:07:04:047,-0.4281,-0.7136,-0.1754,-0.2627,1.7503,0.6972,72.9675,50.37559102,16.28176205,0.00000000,
15:07:04:067,-0.4281,-0.7136,-0.1754,-0.2627,1.7503,0.6972,68.9850,50.37559102,16.28176205,0.00000000,
15:07:04:072,0.0739,-0.6199,-0.0836,-0.2627,1.7503,0.6972,68.9850,50.37559102,16.28176205,0.00000000,
15:07:04:075,0.0739,-0.6199,-0.0836,-0.2627,1.7503,0.6972,68.9850,50.37559102,16.28176205,0.00000000,
15:07:04:077,0.0739,-0.6199,-0.0836,-5.9269,-4.5504,3.9193,68.9850,50.37559102,16.28176205,0.00000000,
15:07:04:134,0.1376,-0.5313,-0.0314,-5.9269,-4.5504,3.9193,68.9850,50.37559102,16.28176205,0.00000000,
15:07:04:139,0.0899,-0.4775,-0.0246,-5.9269,-4.5504,3.9193,68.9850,50.37559102,16.28176205,0.00000000,
15:07:04:142,-0.0177,-0.3877,-0.0212,-5.9269,-4.5504,3.9193,68.9850,50.37559102,16.28176205,0.00000000,
15:07:04:145,-0.0177,-0.3877,-0.0212,-5.9269,-4.5504,3.9193,68.9850,50.37559102,16.28176205,0.00000000,
15:07:04:148,-0.0177,-0.3877,-0.0212,3.8790,0.6232,-4.4027,68.9850,50.37559102,16.28176205,0.00000000,
15:07:04:201,0.0420,-0.5655,0.0004,3.8790,0.6232,-4.4027,68.9850,50.37559102,16.28176205,0.00000000,
15:07:04:204,-0.1613,-0.8325,-0.0096,3.8790,0.6232,-4.4027,68.9850,50.37559102,16.28176205,0.00000000,
15:07:04:207,-0.9996,-1.1489,0.4364,3.8790,0.6232,-4.4027,68.9850,50.37559102,16.28176205,0.00000000,
15:07:04:210,-0.9996,-1.1489,0.4364,3.8790,0.6232,-4.4027,68.9850,50.37559102,16.28176205,0.00000000,
15:07:04:213,-0.9996,-1.1489,0.4364,2.3948,4.0586,-2.7060,68.9850,50.37559102,16.28176205,0.00000000,
15:07:04:227,-0.9996,-1.1489,0.4364,2.3948,4.0586,-2.7060,67.0275,50.37559102,16.28176205,0.00000000,
15:07:04:229,-1.2000,-1.5154,0.4363,2.3948,4.0586,-2.7060,67.0275,50.37559102,16.28176205,0.00000000,
15:07:04:277,-1.2000,-1.5154,0.4363,2.3948,4.0586,-2.7060,67.0275,50.37559102,16.28176205,0.00000000,
15:07:04:281,-1.2000,-1.5154,0.4363,-9.0768,-2.5358,0.7201,67.0275,50.37559102,16.28176205,0.00000000,
15:07:04:294,-0.9602,-1.4683,0.1610,-9.0768,-2.5358,0.7201,67.0275,50.37559102,16.28176205,0.00000000,
15:07:04:298,-0.7577,-1.1085,0.1934,-9.0768,-2.5358,0.7201,67.0275,50.37559102,16.28176205,0.00000000,
15:07:04:301,-0.3167,-0.9591,0.2313,-9.0768,-2.5358,0.7201,67.0275,50.37559102,16.28176205,0.00000000,
15:07:04:304,-0.1356,-0.9402,0.1820,-9.0768,-2.5358,0.7201,67.0275,50.37559102,16.28176205,0.00000000,
15:07:04:343,-0.1356,-0.9402,0.1820,-9.0768,-2.5358,0.7201,67.0275,50.37559102,16.28176205,0.00000000,
15:07:04:348,-0.1356,-0.9402,0.1820,-7.9017,-2.1892,-0.1796,67.0275,50.37559102,16.28176205,0.00000000,
15:07:04:361,-0.2655,-0.9585,0.0809,-7.9017,-2.1892,-0.1796,67.0275,50.37559102,16.28176205,0.00000000,
15:07:04:364,-0.2671,-1.1692,-0.2820,-7.9017,-2.1892,-0.1796,67.0275,50.37559102,16.28176205,0.00000000,
15:07:04:367,0.4907,-1.1684,-0.7761,-7.9017,-2.1892,-0.1796,67.0275,50.37559102,16.28176205,0.00000000,
15:07:04:387,0.4907,-1.1684,-0.7761,-7.9017,-2.1892,-0.1796,56.9700,50.37559102,16.28176205,0.00000000,
15:07:04:392,1.0359,-1.0735,-0.6813,-7.9017,-2.1892,-0.1796,56.9700,50.37559102,16.28176205,0.00000000,
15:07:04:411,1.0359,-1.0735,-0.6813,-7.9017,-2.1892,-0.1796,56.9700,50.37559102,16.28176205,0.00000000,
15:07:04:417,1.0359,-1.0735,-0.6813,-1.9028,-1.0781,-2.5932,56.9700,50.37559102,16.28176205,0.00000000,
15:07:04:454,0.7574,-1.0224,0.0205,-1.9028,-1.0781,-2.5932,56.9700,50.37559102,16.28176205,0.00000000,
15:07:04:458,0.4040,-0.9900,0.6135,-1.9028,-1.0781,-2.5932,56.9700,50.37559102,16.28176205,0.00000000,
15:07:04:462,0.4717,-1.0187,0.6866,-1.9028,-1.0781,-2.5932,56.9700,50.37559102,16.28176205,0.00000000,
15:07:04:480,0.4717,-1.0187,0.6866,-1.9028,-1.0781,-2.5932,56.9700,50.37559102,16.28176205,0.00000000,
15:07:04:485,0.4717,-1.0187,0.6866,6.2971,-0.6835,-1.9927,56.9700,50.37559102,16.28176205,0.00000000,
15:07:04:521,0.4640,-1.0223,0.4958,6.2971,-0.6835,-1.9927,56.9700,50.37559102,16.28176205,0.00000000,
15:07:04:525,0.2874,-0.9788,0.2827,6.2971,-0.6835,-1.9927,56.9700,50.37559102,16.28176205,0.00000000,
15:07:04:527,0.2533,-0.9906,0.0872,6.2971,-0.6835,-1.9927,56.9700,50.37559102,16.28176205,0.00000000,
15:07:04:547,0.2533,-0.9906,0.0872,6.2971,-0.6835,-1.9927,52.9875,50.37559102,16.28176205,0.00000000,
15:07:04:552,0.2937,-0.9594,-0.0219,6.2971,-0.6835,-1.9927,52.9875,50.37559102,16.28176205,0.00000000,
15:07:04:555,0.2937,-0.9594,-0.0219,6.2971,-0.6835,-1.9927,52.9875,50.37559102,16.28176205,0.00000000,
15:07:04:557,0.2937,-0.9594,-0.0219,2.3056,-0.3446,3.9467,52.9875,50.37559102,16.28176205,0.00000000,
15:07:04:614,0.3278,-0.9314,-0.0378,2.3056,-0.3446,3.9467,52.9875,50.37559102,16.28176205,0.00000000,
15:07:04:618,0.3340,-0.9300,0.0117,2.3056,-0.3446,3.9467,52.9875,50.37559102,16.28176205,0.00000000,
15:07:04:621,0.3205,-0.9489,0.0846,2.3056,-0.3446,3.9467,52.9875,50.37559102,16.28176205,0.00000000,
15:07:04:624,0.2731,-0.9748,0.1623,2.3056,-0.3446,3.9467,52.9875,50.37559102,16.28176205,0.00000000,
15:07:04:627,0.2731,-0.9748,0.1623,2.3056,-0.3446,3.9467,52.9875,50.37559102,16.28176205,0.00000000,
15:07:04:630,0.2731,-0.9748,0.1623,1.1130,0.1318,-0.6323,52.9875,50.37559102,16.28176205,0.00000000,
15:07:04:675,0.2331,-1.0176,0.1909,1.1130,0.1318,-0.6323,52.9875,50.37559102,16.28176205,0.00000000,
15:07:04:678,0.2031,-1.0400,0.1635,1.1130,0.1318,-0.6323,52.9875,50.37559102,16.28176205,0.00000000,
15:07:04:681,0.1999,-1.0423,0.0885,1.1130,0.1318,-0.6323,52.9875,50.37559102,16.28176205,0.00000000,
15:07:04:683,0.1999,-1.0423,0.0885,1.1130,0.1318,-0.6323,52.9875,50.37559102,16.28176205,0.00000000,
15:07:04:689,0.1999,-1.0423,0.0885,0.9869,0.0900,0.1579,52.9875,50.37559102,16.28176205,0.00000000,
15:07:04:707,0.1999,-1.0423,0.0885,0.9869,0.0900,0.1579,54.0000,50.37559102,16.28176205,0.00000000,
15:07:04:711,0.2124,-1.0303,0.0093,0.9869,0.0900,0.1579,54.0000,50.37559102,16.28176205,0.00000000,
15:07:04:750,0.2124,-1.0303,0.0093,0.9869,0.0900,0.1579,54.0000,50.37559102,16.28176205,0.00000000,
15:07:04:755,0.2124,-1.0303,0.0093,-0.0452,-0.6675,-0.0824,54.0000,50.37559102,16.28176205,0.00000000,
15:07:04:774,0.1898,-1.0089,-0.0314,-0.0452,-0.6675,-0.0824,54.0000,50.37559102,16.28176205,0.00000000,
15:07:04:778,0.1576,-0.9764,-0.0959,-0.0452,-0.6675,-0.0824,54.0000,50.37559102,16.28176205,0.00000000,
15:07:04:781,0.1872,-0.9811,-0.1864,-0.0452,-0.6675,-0.0824,54.0000,50.37559102,16.28176205,0.00000000,
15:07:04:818,0.1872,-0.9811,-0.1864,-0.0452,-0.6675,-0.0824,54.0000,50.37559102,16.28176205,0.00000000,
15:07:04:822,0.1872,-0.9811,-0.1864,0.0648,-0.1294,-1.7904,54.0000,50.37559102,16.28176205,0.00000000,
15:07:04:840,0.2658,-0.9988,-0.2328,0.0648,-0.1294,-1.7904,54.0000,50.37559102,16.28176205,0.00000000,
15:07:04:842,0.2782,-0.9825,-0.1693,0.0648,-0.1294,-1.7904,54.0000,50.37559102,16.28176205,0.00000000,
15:07:04:843,0.2219,-0.9898,0.0797,0.0648,-0.1294,-1.7904,54.0000,50.37559102,16.28176205,0.00000000,
15:07:04:866,0.2219,-0.9898,0.0797,0.0648,-0.1294,-1.7904,60.0075,50.37559102,16.28176205,0.00000000,
15:07:04:868,0.1740,-1.0483,0.6366,0.0648,-0.1294,-1.7904,60.0075,50.37559102,16.28176205,0.00000000,
15:07:04:869,0.2587,-1.0610,0.9831,0.0648,-0.1294,-1.7904,60.0075,50.37559102,16.28176205,0.00000000,
15:07:04:886,0.2587,-1.0610,0.9831,0.0648,-0.1294,-1.7904,60.0075,50.37559102,16.28176205,0.00000000,
15:07:04:890,0.2587,-1.0610,0.9831,1.5747,-0.0084,-2.0724,60.0075,50.37559102,16.28176205,0.00000000,
15:07:04:934,0.5691,-1.0255,0.7550,1.5747,-0.0084,-2.0724,60.0075,50.37559102,16.28176205,0.00000000,
15:07:04:936,0.6765,-0.9575,0.3625,1.5747,-0.0084,-2.0724,60.0075,50.37559102,16.28176205,0.00000000,
15:07:04:937,0.5344,-0.8623,-0.0938,1.5747,-0.0084,-2.0724,60.0075,50.37559102,16.28176205,0.00000000,
15:07:04:954,0.5344,-0.8623,-0.0938,1.5747,-0.0084,-2.0724,60.0075,50.37559102,16.28176205,0.00000000,
15:07:04:958,0.5344,-0.8623,-0.0938,2.3020,-0.6887,4.5840,60.0075,50.37559102,16.28176205,0.00000000,
15:07:04:964,0.3944,-0.8742,-0.2561,2.3020,-0.6887,4.5840,60.0075,50.37559102,16.28176205,0.00000000,
15:07:04:977,0.1140,-1.0170,-0.0990,2.3020,-0.6887,4.5840,60.0075,50.37559102,16.28176205,0.00000000,
15:07:04:995,-0.1179,-1.1308,0.2619,2.3020,-0.6887,4.5840,60.0075,50.37559102,16.28176205,0.00000000,
15:07:05:021,-0.1179,-1.1308,0.2619,2.3020,-0.6887,4.5840,60.0075,50.37559102,16.28176205,0.00000000,
15:07:05:025,-0.1179,-1.1308,0.2619,3.2814,0.5688,-3.3599,60.0075,50.37559102,16.28176205,0.00000000,
15:07:05:026,-0.1179,-1.1308,0.2619,3.2814,0.5688,-3.3599,71.0100,50.37559102,16.28176205,0.00000000,
15:07:05:027,-0.2130,-1.1038,0.4426,3.2814,0.5688,-3.3599,71.0100,50.37559102,16.28176205,0.00000000,
15:07:05:090,-0.2130,-1.1038,0.4426,3.2814,0.5688,-3.3599,71.0100,50.37559102,16.28176205,0.00000000,
15:07:05:093,-0.2130,-1.1038,0.4426,-2.0112,-1.2878,-0.4683,71.0100,50.37559102,16.28176205,0.00000000,
15:07:05:094,-0.1528,-1.0146,0.4382,-2.0112,-1.2878,-0.4683,71.0100,50.37559102,16.28176205,0.00000000,
15:07:05:096,-0.0563,-0.8903,0.4352,-2.0112,-1.2878,-0.4683,71.0100,50.37559102,16.28176205,0.00000000,
15:07:05:097,-0.0137,-0.7979,0.4134,-2.0112,-1.2878,-0.4683,71.0100,50.37559102,16.28176205,0.00000000,
15:07:05:157,-0.0137,-0.7979,0.4134,-2.0112,-1.2878,-0.4683,71.0100,50.37559102,16.28176205,0.00000000,
15:07:05:160,-0.0010,-0.7249,0.3570,-2.0112,-1.2878,-0.4683,71.0100,50.37559102,16.28176205,0.00000000,
15:07:05:161,-0.0050,-0.6750,0.2901,-2.0112,-1.2878,-0.4683,71.0100,50.37559102,16.28176205,0.00000000,
15:07:05:162,-0.0228,-0.6508,0.2190,-2.0112,-1.2878,-0.4683,71.0100,50.37559102,16.28176205,0.00000000,
15:07:05:164,-0.0228,-0.6508,0.2190,-1.6648,0.8606,0.1399,71.0100,50.37559102,16.28176205,0.00000000,
15:07:05:187,-0.0228,-0.6508,0.2190,-1.6648,0.8606,0.1399,76.0050,50.37559102,16.28176205,0.00000000,
15:07:05:189,-0.0026,-0.6342,0.1597,-1.6648,0.8606,0.1399,76.0050,50.37559102,16.28176205,0.00000000,
15:07:05:190,0.0858,-0.6147,0.1412,-1.6648,0.8606,0.1399,76.0050,50.37559102,16.28176205,0.00000000,
15:07:05:225,0.0858,-0.6147,0.1412,-1.6648,0.8606,0.1399,76.0050,50.37559102,16.28176205,0.00000000,
15:07:05:228,0.0858,-0.6147,0.1412,-1.8855,2.1756,-1.4594,76.0050,50.37559102,16.28176205,0.00000000,
15:07:05:253,0.2233,-0.6267,0.1589,-1.8855,2.1756,-1.4594,76.0050,50.37559102,16.28176205,0.00000000,
15:07:05:255,0.3932,-0.6482,0.2561,-1.8855,2.1756,-1.4594,76.0050,50.37559102,16.28176205,0.00000000,
15:07:05:256,0.5637,-0.6754,0.4538,-1.8855,2.1756,-1.4594,76.0050,50.37559102,16.28176205,0.00000000,
15:07:05:294,0.5637,-0.6754,0.4538,-1.8855,2.1756,-1.4594,76.0050,50.37559102,16.28176205,0.00000000,
15:07:05:299,0.5637,-0.6754,0.4538,-0.1444,2.2245,-0.8796,76.0050,50.37559102,16.28176205,0.00000000,
15:07:05:321,0.6083,-0.7370,0.5880,-0.1444,2.2245,-0.8796,76.0050,50.37559102,16.28176205,0.00000000,
15:07:05:325,0.5507,-0.8736,0.5369,-0.1444,2.2245,-0.8796,76.0050,50.37559102,16.28176205,0.00000000,
15:07:05:328,0.4711,-0.9886,0.4458,-0.1444,2.2245,-0.8796,76.0050,50.37559102,16.28176205,0.00000000,
15:07:05:347,0.4711,-0.9886,0.4458,-0.1444,2.2245,-0.8796,73.9800,50.37559102,16.28176205,0.00000000,
15:07:05:350,0.4925,-0.9464,0.4383,-0.1444,2.2245,-0.8796,73.9800,50.37559102,16.28176205,0.00000000,
15:07:05:361,0.4925,-0.9464,0.4383,-0.1444,2.2245,-0.8796,73.9800,50.37559102,16.28176205,0.00000000,
15:07:05:365,0.4925,-0.9464,0.4383,2.4798,0.6550,2.5375,73.9800,50.37559102,16.28176205,0.00000000,
15:07:05:414,0.5757,-0.8369,0.5471,2.4798,0.6550,2.5375,73.9800,50.37559102,16.28176205,0.00000000,
15:07:05:419,0.5236,-0.7717,0.7465,2.4798,0.6550,2.5375,73.9800,50.37559102,16.28176205,0.00000000,
15:07:05:422,0.1641,-0.9264,0.7421,2.4798,0.6550,2.5375,73.9800,50.37559102,16.28176205,0.00000000,
15:07:05:431,0.1641,-0.9264,0.7421,2.4798,0.6550,2.5375,73.9800,50.37559102,16.28176205,0.00000000,
15:07:05:434,0.1641,-0.9264,0.7421,1.6103,-0.2355,2.6742,73.9800,50.37559102,16.28176205,0.00000000,
15:07:05:435,0.0671,-1.2959,0.5414,1.6103,-0.2355,2.6742,73.9800,50.37559102,16.28176205,0.00000000,
15:07:05:496,0.0671,-1.2959,0.5414,1.6103,-0.2355,2.6742,73.9800,50.37559102,16.28176205,0.00000000,
15:07:05:500,0.0936,-1.6691,0.3366,1.6103,-0.2355,2.6742,73.9800,50.37559102,16.28176205,0.00000000,
15:07:05:503,0.0221,-1.6776,0.3705,1.6103,-0.2355,2.6742,73.9800,50.37559102,16.28176205,0.00000000,
15:07:05:506,-0.0884,-0.9990,0.3073,1.6103,-0.2355,2.6742,73.9800,50.37559102,16.28176205,0.00000000,
15:07:05:508,-0.0884,-0.9990,0.3073,-1.5404,-2.7213,3.1389,73.9800,50.37559102,16.28176205,0.00000000,
15:07:05:552,0.0599,-0.5907,0.1311,-1.5404,-2.7213,3.1389,73.9800,50.37559102,16.28176205,0.00000000,
15:07:05:554,0.2914,-0.6533,0.1128,-1.5404,-2.7213,3.1389,73.9800,50.37559102,16.28176205,0.00000000,
15:07:05:556,0.4701,-0.8242,0.1761,-1.5404,-2.7213,3.1389,73.9800,50.37559102,16.28176205,0.00000000,
15:07:05:564,0.4701,-0.8242,0.1761,-1.5404,-2.7213,3.1389,73.9800,50.37559102,16.28176205,0.00000000,
15:07:05:569,0.4701,-0.8242,0.1761,-2.4951,-1.6744,0.4550,73.9800,50.37559102,16.28176205,0.00000000,
15:07:05:620,0.5637,-0.8827,0.1165,-2.4951,-1.6744,0.4550,73.9800,50.37559102,16.28176205,0.00000000,
15:07:05:623,0.5044,-0.9441,-0.0142,-2.4951,-1.6744,0.4550,73.9800,50.37559102,16.28176205,0.00000000,
15:07:05:626,0.4019,-0.9553,-0.1234,-2.4951,-1.6744,0.4550,73.9800,50.37559102,16.28176205,0.00000000,
15:07:05:632,0.4019,-0.9553,-0.1234,-2.4951,-1.6744,0.4550,73.9800,50.37559102,16.28176205,0.00000000,
15:07:05:637,0.4019,-0.9553,-0.1234,1.2823,1.4257,-0.4557,73.9800,50.37559102,16.28176205,0.00000000,
15:07:05:667,0.4019,-0.9553,-0.1234,1.2823,1.4257,-0.4557,77.0175,50.37559102,16.28176205,0.00000000,
15:07:05:669,0.2414,-0.9143,-0.1642,1.2823,1.4257,-0.4557,77.0175,50.37559102,16.28176205,0.00000000,
15:07:05:671,0.1808,-0.8577,-0.1921,1.2823,1.4257,-0.4557,77.0175,50.37559102,16.28176205,0.00000000,
15:07:05:699,0.1808,-0.8577,-0.1921,1.2823,1.4257,-0.4557,77.0175,50.37559102,16.28176205,0.00000000,
15:07:05:703,0.1808,-0.8577,-0.1921,0.5224,0.2319,-2.2869,77.0175,50.37559102,16.28176205,0.00000000,
15:07:05:734,0.2274,-0.9071,-0.2240,0.5224,0.2319,-2.2869,77.0175,50.37559102,16.28176205,0.00000000,
15:07:05:738,0.2534,-1.0063,-0.2152,0.5224,0.2319,-2.2869,77.0175,50.37559102,16.28176205,0.00000000,
15:07:05:741,0.2883,-1.0296,-0.1727,0.5224,0.2319,-2.2869,77.0175,50.37559102,16.28176205,0.00000000,
15:07:05:746,0.3122,-1.0004,-0.1116,0.5224,0.2319,-2.2869,77.0175,50.37559102,16.28176205,0.00000000,
15:07:05:769,0.3122,-1.0004,-0.1116,0.5224,0.2319,-2.2869,77.0175,50.37559102,16.28176205,0.00000000,
15:07:05:773,0.3122,-1.0004,-0.1116,-0.1029,0.1664,-2.1657,77.0175,50.37559102,16.28176205,0.00000000,
15:07:05:802,0.3050,-0.9958,-0.0285,-0.1029,0.1664,-2.1657,77.0175,50.37559102,16.28176205,0.00000000,
15:07:05:805,0.2995,-0.9876,0.0321,-0.1029,0.1664,-2.1657,77.0175,50.37559102,16.28176205,0.00000000,
15:07:05:808,0.2963,-0.9632,0.0389,-0.1029,0.1664,-2.1657,77.0175,50.37559102,16.28176205,0.00000000,
15:07:05:827,0.2963,-0.9632,0.0389,-0.1029,0.1664,-2.1657,73.9800,50.37559102,16.28176205,0.00000000,
15:07:05:828,0.2713,-0.9345,-0.0104,-0.1029,0.1664,-2.1657,73.9800,50.37559102,16.28176205,0.00000000,
15:07:05:836,0.2713,-0.9345,-0.0104,-0.1029,0.1664,-2.1657,73.9800,50.37559102,16.28176205,0.00000000,
15:07:05:840,0.2713,-0.9345,-0.0104,0.6711,-0.2209,-0.2742,73.9800,50.37559102,16.28176205,0.00000000,
15:07:05:894,0.2475,-0.9238,-0.0552,0.6711,-0.2209,-0.2742,73.9800,50.37559102,16.28176205,0.00000000,
15:07:05:897,0.2380,-0.9244,-0.0568,0.6711,-0.2209,-0.2742,73.9800,50.37559102,16.28176205,0.00000000,
15:07:05:900,0.2287,-0.9200,-0.0614,0.6711,-0.2209,-0.2742,73.9800,50.37559102,16.28176205,0.00000000,
15:07:05:903,0.2287,-0.9200,-0.0614,0.6711,-0.2209,-0.2742,73.9800,50.37559102,16.28176205,0.00000000,
15:07:05:909,0.2287,-0.9200,-0.0614,0.3844,0.2983,0.4392,73.9800,50.37559102,16.28176205,0.00000000,
15:07:05:969,0.2385,-0.9253,-0.0784,0.3844,0.2983,0.4392,73.9800,50.37559102,16.28176205,0.00000000,
15:07:05:973,0.2562,-0.9460,-0.1042,0.3844,0.2983,0.4392,73.9800,50.37558552,16.28177650,0.51999998,
15:07:05:974,0.2754,-0.9587,-0.1044,0.3844,0.2983,0.4392,73.9800,50.37558552,16.28177650,0.51999998,
15:07:05:976,0.2614,-0.9477,-0.0622,0.3844,0.2983,0.4392,73.9800,50.37558552,16.28177650,0.51999998,
15:07:05:977,0.2614,-0.9477,-0.0622,0.3844,0.2983,0.4392,73.9800,50.37558552,16.28177650,0.51999998,
15:07:05:977,0.2614,-0.9477,-0.0622,0.0477,0.4111,0.2075,73.9800,50.37558552,16.28177650,0.51999998,
15:07:05:999,0.2368,-0.9234,-0.0265,0.0477,0.4111,0.2075,73.9800,50.37558552,16.28177650,0.51999998,
15:07:06:039,0.2167,-0.8803,-0.0250,0.0477,0.4111,0.2075,73.9800,50.37558552,16.28177650,0.51999998,
15:07:06:041,0.1998,-0.8557,-0.0519,0.0477,0.4111,0.2075,73.9800,50.37558552,16.28177650,0.51999998,
15:07:06:043,0.1998,-0.8557,-0.0519,0.0477,0.4111,0.2075,73.9800,50.37558552,16.28177650,0.51999998,
15:07:06:044,0.1998,-0.8557,-0.0519,0.1964,0.1018,0.2889,73.9800,50.37558552,16.28177650,0.51999998,
15:07:06:104,0.2111,-0.8683,-0.0744,0.1964,0.1018,0.2889,73.9800,50.37558552,16.28177650,0.51999998,
15:07:06:108,0.2080,-0.9198,-0.0635,0.1964,0.1018,0.2889,73.9800,50.37558552,16.28177650,0.51999998,
15:07:06:111,0.1735,-0.9744,-0.0472,0.1964,0.1018,0.2889,73.9800,50.37558552,16.28177650,0.51999998,
15:07:06:113,0.1735,-0.9744,-0.0472,0.1964,0.1018,0.2889,73.9800,50.37558552,16.28177650,0.51999998,
15:07:06:114,0.1735,-0.9744,-0.0472,-0.3971,0.6410,0.9575,73.9800,50.37558552,16.28177650,0.51999998,
15:07:06:147,0.1735,-0.9744,-0.0472,-0.3971,0.6410,0.9575,67.9725,50.37558552,16.28177650,0.51999998,
15:07:06:150,0.1291,-1.0080,-0.0368,-0.3971,0.6410,0.9575,67.9725,50.37558552,16.28177650,0.51999998,
15:07:06:151,0.0790,-1.0457,-0.0211,-0.3971,0.6410,0.9575,67.9725,50.37558552,16.28177650,0.51999998,
15:07:06:175,0.0790,-1.0457,-0.0211,-0.3971,0.6410,0.9575,67.9725,50.37558552,16.28177650,0.51999998,
15:07:06:178,0.0790,-1.0457,-0.0211,-0.7479,-0.1723,1.0386,67.9725,50.37558552,16.28177650,0.51999998,
15:07:06:214,0.0430,-1.0857,0.0054,-0.7479,-0.1723,1.0386,67.9725,50.37558552,16.28177650,0.51999998,
15:07:06:216,0.0539,-1.1545,-0.0134,-0.7479,-0.1723,1.0386,67.9725,50.37558552,16.28177650,0.51999998,
15:07:06:218,0.1326,-1.2330,-0.0884,-0.7479,-0.1723,1.0386,67.9725,50.37558552,16.28177650,0.51999998,
15:07:06:242,0.1326,-1.2330,-0.0884,-0.7479,-0.1723,1.0386,67.9725,50.37558552,16.28177650,0.51999998,
15:07:06:248,0.1326,-1.2330,-0.0884,-1.5640,-1.3971,1.6831,67.9725,50.37558552,16.28177650,0.51999998,
15:07:06:269,0.2574,-1.2137,-0.1173,-1.5640,-1.3971,1.6831,67.9725,50.37558552,16.28177650,0.51999998,
15:07:06:273,0.2533,-1.1221,-0.0052,-1.5640,-1.3971,1.6831,67.9725,50.37558552,16.28177650,0.51999998,
15:07:06:276,0.2748,-1.0569,0.1353,-1.5640,-1.3971,1.6831,67.9725,50.37558552,16.28177650,0.51999998,
15:07:06:307,0.2748,-1.0569,0.1353,-1.5640,-1.3971,1.6831,67.0275,50.37558552,16.28177650,0.51999998,
15:07:06:310,0.2453,-1.1139,0.2479,-1.5640,-1.3971,1.6831,67.0275,50.37558552,16.28177650,0.51999998,
15:07:06:312,0.0760,-1.2273,0.2814,-1.5640,-1.3971,1.6831,67.0275,50.37558552,16.28177650,0.51999998,
15:07:06:313,0.0760,-1.2273,0.2814,-1.5640,-1.3971,1.6831,67.0275,50.37558552,16.28177650,0.51999998,
15:07:06:315,0.0760,-1.2273,0.2814,-0.1062,-2.0648,1.1110,67.0275,50.37558552,16.28177650,0.51999998,
15:07:06:374,-0.0524,-1.2821,0.2635,-0.1062,-2.0648,1.1110,67.0275,50.37558552,16.28177650,0.51999998,
15:07:06:377,-0.1550,-1.2625,0.2597,-0.1062,-2.0648,1.1110,67.0275,50.37558552,16.28177650,0.51999998,
15:07:06:379,-0.1351,-1.1082,0.2752,-0.1062,-2.0648,1.1110,67.0275,50.37558552,16.28177650,0.51999998,
15:07:06:380,-0.1351,-1.1082,0.2752,-0.1062,-2.0648,1.1110,67.0275,50.37558552,16.28177650,0.51999998,
15:07:06:382,-0.1351,-1.1082,0.2752,-0.3767,-1.4381,2.6712,67.0275,50.37558552,16.28177650,0.51999998,
15:07:06:441,0.1872,-1.0640,0.2125,-0.3767,-1.4381,2.6712,67.0275,50.37558552,16.28177650,0.51999998,
15:07:06:445,0.5310,-1.1511,0.0244,-0.3767,-1.4381,2.6712,67.0275,50.37558552,16.28177650,0.51999998,
15:07:06:448,0.7236,-1.1943,-0.1878,-0.3767,-1.4381,2.6712,67.0275,50.37558552,16.28177650,0.51999998,
15:07:06:452,0.7236,-1.1943,-0.1878,-0.3767,-1.4381,2.6712,67.0275,50.37558552,16.28177650,0.51999998,
15:07:06:455,0.7236,-1.1943,-0.1878,-1.9889,-1.5093,0.9694,67.0275,50.37558552,16.28177650,0.51999998,
15:07:06:466,0.7499,-1.1595,-0.2121,-1.9889,-1.5093,0.9694,67.0275,50.37558552,16.28177650,0.51999998,
15:07:06:468,0.7499,-1.1595,-0.2121,-1.9889,-1.5093,0.9694,76.0050,50.37558552,16.28177650,0.51999998,
15:07:06:501,0.7405,-1.1509,-0.1200,-1.9889,-1.5093,0.9694,76.0050,50.37558552,16.28177650,0.51999998,
15:07:06:505,0.7540,-1.1891,-0.0431,-1.9889,-1.5093,0.9694,76.0050,50.37558552,16.28177650,0.51999998,
15:07:06:514,0.7540,-1.1891,-0.0431,-1.9889,-1.5093,0.9694,76.0050,50.37558552,16.28177650,0.51999998,
15:07:06:518,0.7540,-1.1891,-0.0431,5.1385,-1.2324,-2.8133,76.0050,50.37558552,16.28177650,0.51999998,
15:07:06:569,0.6270,-1.1118,0.0090,5.1385,-1.2324,-2.8133,76.0050,50.37558552,16.28177650,0.51999998,
15:07:06:573,0.5512,-0.9685,-0.0060,5.1385,-1.2324,-2.8133,76.0050,50.37558552,16.28177650,0.51999998,
15:07:06:576,0.3988,-0.8277,0.0540,5.1385,-1.2324,-2.8133,76.0050,50.37558552,16.28177650,0.51999998,
15:07:06:582,0.3988,-0.8277,0.0540,5.1385,-1.2324,-2.8133,76.0050,50.37558552,16.28177650,0.51999998,
15:07:06:585,0.3988,-0.8277,0.0540,5.3669,-1.2000,-3.0559,76.0050,50.37558552,16.28177650,0.51999998,
15:07:06:627,0.3988,-0.8277,0.0540,5.3669,-1.2000,-3.0559,81.0000,50.37558552,16.28177650,0.51999998,
15:07:06:630,0.2101,-0.7585,0.0297,5.3669,-1.2000,-3.0559,81.0000,50.37558552,16.28177650,0.51999998,
15:07:06:631,-0.0002,-0.7499,-0.1210,5.3669,-1.2000,-3.0559,81.0000,50.37558552,16.28177650,0.51999998,
15:07:06:633,-0.1776,-0.7903,-0.1330,5.3669,-1.2000,-3.0559,81.0000,50.37558552,16.28177650,0.51999998,
15:07:06:650,-0.1776,-0.7903,-0.1330,5.3669,-1.2000,-3.0559,81.0000,50.37558552,16.28177650,0.51999998,
15:07:06:654,-0.1776,-0.7903,-0.1330,2.0782,1.6170,-2.0698,81.0000,50.37558552,16.28177650,0.51999998,
15:07:06:694,-0.1320,-0.7914,0.0134,2.0782,1.6170,-2.0698,81.0000,50.37558552,16.28177650,0.51999998,
15:07:06:696,-0.0986,-0.7124,0.1215,2.0782,1.6170,-2.0698,81.0000,50.37558552,16.28177650,0.51999998,
15:07:06:698,0.1098,-0.5956,0.1682,2.0782,1.6170,-2.0698,81.0000,50.37558552,16.28177650,0.51999998,
15:07:06:718,0.1098,-0.5956,0.1682,2.0782,1.6170,-2.0698,81.0000,50.37558552,16.28177650,0.51999998,
15:07:06:722,0.1098,-0.5956,0.1682,-1.9488,2.1308,-2.4056,81.0000,50.37558552,16.28177650,0.51999998,
15:07:06:734,0.3155,-0.5347,0.1132,-1.9488,2.1308,-2.4056,81.0000,50.37558552,16.28177650,0.51999998,
15:07:06:737,0.4345,-0.4839,0.0222,-1.9488,2.1308,-2.4056,81.0000,50.37558552,16.28177650,0.51999998,
15:07:06:784,0.4345,-0.4839,0.0222,-1.9488,2.1308,-2.4056,81.0000,50.37558552,16.28177650,0.51999998,
15:07:06:789,0.4345,-0.4839,0.0222,0.8234,3.6444,-0.4215,81.0000,50.37558552,16.28177650,0.51999998,
15:07:06:801,0.4927,-0.4362,-0.0607,0.8234,3.6444,-0.4215,81.0000,50.37558552,16.28177650,0.51999998,
15:07:06:804,0.4559,-0.4113,-0.0809,0.8234,3.6444,-0.4215,81.0000,50.37558552,16.28177650,0.51999998,
15:07:06:805,0.3698,-0.4618,-0.0728,0.8234,3.6444,-0.4215,81.0000,50.37558552,16.28177650,0.51999998,
15:07:06:853,0.3698,-0.4618,-0.0728,0.8234,3.6444,-0.4215,81.0000,50.37558552,16.28177650,0.51999998,
15:07:06:857,0.3698,-0.4618,-0.0728,2.3885,4.4239,-1.5955,81.0000,50.37558552,16.28177650,0.51999998,
15:07:06:868,0.2704,-0.5871,0.0106,2.3885,4.4239,-1.5955,81.0000,50.37558552,16.28177650,0.51999998,
15:07:06:871,0.1317,-0.7854,0.1667,2.3885,4.4239,-1.5955,81.0000,50.37558552,16.28177650,0.51999998,
15:07:06:873,-0.1431,-1.2025,0.5385,2.3885,4.4239,-1.5955,81.0000,50.37558552,16.28177650,0.51999998,
15:07:06:920,-0.1431,-1.2025,0.5385,2.3885,4.4239,-1.5955,81.0000,50.37558552,16.28177650,0.51999998,
15:07:06:925,-0.1431,-1.2025,0.5385,-0.6541,0.5220,1.2202,81.0000,50.37558552,16.28177650,0.51999998,
15:07:06:939,-0.6490,-1.9140,0.8601,-0.6541,0.5220,1.2202,81.0000,50.37558552,16.28177650,0.51999998,
15:07:06:941,-0.9482,-2.4048,0.8769,-0.6541,0.5220,1.2202,81.0000,50.37558552,16.28177650,0.51999998,
15:07:06:945,-0.5231,-2.0446,1.0009,-0.6541,0.5220,1.2202,81.0000,50.37558552,16.28177650,0.51999998,
15:07:06:947,-0.5231,-2.0446,1.0009,-0.6541,0.5220,1.2202,83.0250,50.37558552,16.28177650,0.51999998,
15:07:06:951,-0.0668,-1.0511,0.5460,-0.6541,0.5220,1.2202,83.0250,50.37558552,16.28177650,0.51999998,
15:07:06:966,0.1462,-0.5466,0.2040,-0.6541,0.5220,1.2202,83.0250,50.37558552,16.28177650,0.51999998,
15:07:06:987,0.1462,-0.5466,0.2040,-0.6541,0.5220,1.2202,83.0250,50.37558552,16.28177650,0.51999998,
15:07:06:991,0.1462,-0.5466,0.2040,-7.2406,-10.3709,6.6501,83.0250,50.37558552,16.28177650,0.51999998,
15:07:07:005,0.7370,-0.9543,-0.0599,-7.2406,-10.3709,6.6501,83.0250,50.37558552,16.28177650,0.51999998,
15:07:07:006,1.0519,-1.6431,-0.0424,-7.2406,-10.3709,6.6501,83.0250,50.37558552,16.28177650,0.51999998,
15:07:07:039,0.6811,-1.4452,-0.2575,-7.2406,-10.3709,6.6501,83.0250,50.37558552,16.28177650,0.51999998,
15:07:07:056,0.6811,-1.4452,-0.2575,-7.2406,-10.3709,6.6501,83.0250,50.37558552,16.28177650,0.51999998,
15:07:07:062,0.6811,-1.4452,-0.2575,1.9183,0.9711,-0.5416,83.0250,50.37558552,16.28177650,0.51999998,
15:07:07:106,0.7569,-0.9228,-0.4450,1.9183,0.9711,-0.5416,83.0250,50.37558552,16.28177650,0.51999998,
15:07:07:111,0.3244,-0.6599,-0.0944,1.9183,0.9711,-0.5416,83.0250,50.37558552,16.28177650,0.51999998,
15:07:07:112,0.1354,-0.4523,0.2396,1.9183,0.9711,-0.5416,83.0250,50.37558552,16.28177650,0.51999998,
15:07:07:114,0.1354,-0.4523,0.2396,1.9183,0.9711,-0.5416,90.9900,50.37558552,16.28177650,0.51999998,
15:07:07:124,0.1354,-0.4523,0.2396,1.9183,0.9711,-0.5416,90.9900,50.37558552,16.28177650,0.51999998,
15:07:07:128,0.1354,-0.4523,0.2396,5.0995,-1.6926,-3.5616,90.9900,50.37558552,16.28177650,0.51999998,
15:07:07:174,0.3055,-0.5105,0.1864,5.0995,-1.6926,-3.5616,90.9900,50.37558552,16.28177650,0.51999998,
15:07:07:177,0.4992,-0.6921,0.1810,5.0995,-1.6926,-3.5616,90.9900,50.37558552,16.28177650,0.51999998,
15:07:07:178,0.5228,-0.9397,0.2030,5.0995,-1.6926,-3.5616,90.9900,50.37558552,16.28177650,0.51999998,
15:07:07:193,0.5228,-0.9397,0.2030,5.0995,-1.6926,-3.5616,90.9900,50.37558552,16.28177650,0.51999998,
15:07:07:198,0.5228,-0.9397,0.2030,0.2636,4.2425,0.6209,90.9900,50.37558552,16.28177650,0.51999998,
15:07:07:202,0.3749,-1.1645,0.1118,0.2636,4.2425,0.6209,90.9900,50.37558552,16.28177650,0.51999998,
15:07:07:205,0.1476,-1.1546,0.0277,0.2636,4.2425,0.6209,90.9900,50.37558552,16.28177650,0.51999998,
15:07:07:259,0.1476,-1.1546,0.0277,0.2636,4.2425,0.6209,90.9900,50.37558552,16.28177650,0.51999998,
15:07:07:263,0.1476,-1.1546,0.0277,0.5666,-0.8717,0.6655,90.9900,50.37558552,16.28177650,0.51999998,
15:07:07:267,0.1476,-1.1546,0.0277,0.5666,-0.8717,0.6655,105.0300,50.37558552,16.28177650,0.51999998,
15:07:07:270,0.0194,-1.0463,-0.1136,0.5666,-0.8717,0.6655,105.0300,50.37558552,16.28177650,0.51999998,
15:07:07:273,-0.0366,-0.9999,-0.1095,0.5666,-0.8717,0.6655,105.0300,50.37558552,16.28177650,0.51999998,
15:07:07:276,0.0441,-0.9441,-0.0383,0.5666,-0.8717,0.6655,105.0300,50.37558552,16.28177650,0.51999998,
15:07:07:327,0.0441,-0.9441,-0.0383,0.5666,-0.8717,0.6655,105.0300,50.37558552,16.28177650,0.51999998,
15:07:07:332,0.0441,-0.9441,-0.0383,-2.3880,-0.0696,-1.1359,105.0300,50.37558552,16.28177650,0.51999998,
15:07:07:335,0.1000,-0.8549,-0.0752,-2.3880,-0.0696,-1.1359,105.0300,50.37558552,16.28177650,0.51999998,
15:07:07:338,0.1216,-0.8133,-0.1416,-2.3880,-0.0696,-1.1359,105.0300,50.37558552,16.28177650,0.51999998,
15:07:07:342,0.1506,-0.8216,-0.1583,-2.3880,-0.0696,-1.1359,105.0300,50.37558552,16.28177650,0.51999998,
15:07:07:395,0.1506,-0.8216,-0.1583,-2.3880,-0.0696,-1.1359,105.0300,50.37558552,16.28177650,0.51999998,
15:07:07:399,0.1506,-0.8216,-0.1583,-0.9195,1.3793,-0.9944,105.0300,50.37558552,16.28177650,0.51999998,
15:07:07:402,0.1992,-0.8609,-0.1657,-0.9195,1.3793,-0.9944,105.0300,50.37558552,16.28177650,0.51999998,
15:07:07:405,0.2074,-0.8730,-0.1754,-0.9195,1.3793,-0.9944,105.0300,50.37558552,16.28177650,0.51999998,
15:07:07:408,0.2241,-0.8755,-0.1913,-0.9195,1.3793,-0.9944,105.0300,50.37558552,16.28177650,0.51999998,
15:07:07:427,0.2241,-0.8755,-0.1913,-0.9195,1.3793,-0.9944,100.9800,50.37558552,16.28177650,0.51999998,
15:07:07:431,0.2619,-0.8849,-0.1204,-0.9195,1.3793,-0.9944,100.9800,50.37558552,16.28177650,0.51999998,
15:07:07:450,0.2995,-0.8979,-0.0695,-0.9195,1.3793,-0.9944,100.9800,50.37558552,16.28177650,0.51999998,
15:07:07:452,0.3485,-0.9199,-0.0521,-0.9195,1.3793,-0.9944,100.9800,50.37558552,16.28177650,0.51999998,
15:07:07:463,0.3485,-0.9199,-0.0521,-0.9195,1.3793,-0.9944,100.9800,50.37558552,16.28177650,0.51999998,
15:07:07:467,0.3485,-0.9199,-0.0521,-0.0234,0.7370,-0.1186,100.9800,50.37558552,16.28177650,0.51999998,
15:07:07:518,0.4201,-0.9779,0.0012,-0.0234,0.7370,-0.1186,100.9800,50.37558552,16.28177650,0.51999998,
15:07:07:521,0.3993,-1.0380,0.1563,-0.0234,0.7370,-0.1186,100.9800,50.37558552,16.28177650,0.51999998,
15:07:07:522,0.3002,-1.0516,0.4925,-0.0234,0.7370,-0.1186,100.9800,50.37558552,16.28177650,0.51999998,
15:07:07:532,0.3002,-1.0516,0.4925,-0.0234,0.7370,-0.1186,100.9800,50.37558552,16.28177650,0.51999998,
15:07:07:535,0.3002,-1.0516,0.4925,1.0914,-0.0638,2.1975,100.9800,50.37558552,16.28177650,0.51999998,
15:07:07:584,0.1135,-1.0712,0.7312,1.0914,-0.0638,2.1975,100.9800,50.37558552,16.28177650,0.51999998,
15:07:07:589,0.0439,-1.0859,0.3176,1.0914,-0.0638,2.1975,100.9800,50.37558552,16.28177650,0.51999998,
15:07:07:591,0.0555,-1.1590,-0.0519,1.0914,-0.0638,2.1975,100.9800,50.37558552,16.28177650,0.51999998,
15:07:07:594,0.0555,-1.1590,-0.0519,1.0914,-0.0638,2.1975,94.0275,50.37558552,16.28177650,0.51999998,
15:07:07:598,0.0555,-1.1590,-0.0519,1.0914,-0.0638,2.1975,94.0275,50.37558552,16.28177650,0.51999998,
15:07:07:603,0.0555,-1.1590,-0.0519,-0.0307,-1.0679,5.1849,94.0275,50.37558552,16.28177650,0.51999998,
15:07:07:655,0.0383,-1.3150,-0.2685,-0.0307,-1.0679,5.1849,94.0275,50.37558552,16.28177650,0.51999998,
15:07:07:658,0.0333,-1.3130,-0.2284,-0.0307,-1.0679,5.1849,94.0275,50.37558552,16.28177650,0.51999998,
15:07:07:659,-0.0379,-1.2588,-0.0383,-0.0307,-1.0679,5.1849,94.0275,50.37558552,16.28177650,0.51999998,
15:07:07:666,-0.0379,-1.2588,-0.0383,-0.0307,-1.0679,5.1849,94.0275,50.37558552,16.28177650,0.51999998,
15:07:07:672,-0.0379,-1.2588,-0.0383,-1.9149,-2.1719,0.6476,94.0275,50.37558552,16.28177650,0.51999998,
15:07:07:682,-0.0713,-1.2249,0.0638,-1.9149,-2.1719,0.6476,94.0275,50.37558552,16.28177650,0.51999998,
15:07:07:683,-0.1003,-1.2629,0.4606,-1.9149,-2.1719,0.6476,94.0275,50.37558552,16.28177650,0.51999998,
15:07:07:735,-0.1003,-1.2629,0.4606,-1.9149,-2.1719,0.6476,94.0275,50.37558552,16.28177650,0.51999998,
15:07:07:738,-0.1003,-1.2629,0.4606,-1.8554,-2.3476,-0.6837,94.0275,50.37558552,16.28177650,0.51999998,
15:07:07:747,-0.1003,-1.2629,0.4606,-1.8554,-2.3476,-0.6837,89.0325,50.37558552,16.28177650,0.51999998,
15:07:07:751,0.0653,-1.1847,1.0155,-1.8554,-2.3476,-0.6837,89.0325,50.37558552,16.28177650,0.51999998,
15:07:07:754,0.4149,-1.1514,0.7802,-1.8554,-2.3476,-0.6837,89.0325,50.37558552,16.28177650,0.51999998,
15:07:07:757,0.8692,-1.4487,-0.0008,-1.8554,-2.3476,-0.6837,89.0325,50.37558552,16.28177650,0.51999998,
15:07:07:802,0.8692,-1.4487,-0.0008,-1.8554,-2.3476,-0.6837,89.0325,50.37558552,16.28177650,0.51999998,
15:07:07:806,0.8692,-1.4487,-0.0008,1.7766,-1.9992,3.7482,89.0325,50.37558552,16.28177650,0.51999998,
15:07:07:814,1.1093,-1.7042,-0.3669,1.7766,-1.9992,3.7482,89.0325,50.37558552,16.28177650,0.51999998,
15:07:07:816,1.1352,-1.5983,-0.5064,1.7766,-1.9992,3.7482,89.0325,50.37558552,16.28177650,0.51999998,
15:07:07:818,0.9378,-1.1599,-0.3837,1.7766,-1.9992,3.7482,89.0325,50.37558552,16.28177650,0.51999998,
15:07:07:855,0.6331,-0.8399,-0.1162,1.7766,-1.9992,3.7482,89.0325,50.37558552,16.28177650,0.51999998,
15:07:07:858,0.3504,-0.8500,0.1453,1.7766,-1.9992,3.7482,89.0325,50.37558552,16.28177650,0.51999998,
15:07:07:871,0.3504,-0.8500,0.1453,1.7766,-1.9992,3.7482,89.0325,50.37558552,16.28177650,0.51999998,
15:07:07:874,0.3504,-0.8500,0.1453,8.9953,-4.4741,-6.4622,89.0325,50.37558552,16.28177650,0.51999998,
15:07:07:881,0.3261,-0.8841,0.1198,8.9953,-4.4741,-6.4622,89.0325,50.37558552,16.28177650,0.51999998,
15:07:07:907,0.3261,-0.8841,0.1198,8.9953,-4.4741,-6.4622,143.0325,50.37558552,16.28177650,0.51999998,
15:07:07:909,0.2147,-0.8061,-0.0043,8.9953,-4.4741,-6.4622,143.0325,50.37558552,16.28177650,0.51999998,
15:07:07:938,0.2147,-0.8061,-0.0043,8.9953,-4.4741,-6.4622,143.0325,50.37558552,16.28177650,0.51999998,
15:07:07:945,0.2147,-0.8061,-0.0043,2.3770,1.6304,-2.4575,143.0325,50.37558552,16.28177650,0.51999998,
15:07:07:980,0.0602,-0.7104,-0.0891,2.3770,1.6304,-2.4575,143.0325,50.37558552,16.28177650,0.51999998,
15:07:07:983,-0.1945,-0.6918,-0.2365,2.3770,1.6304,-2.4575,143.0325,50.37558552,16.28177650,0.51999998,
15:07:07:984,-0.2584,-0.7086,-0.1713,2.3770,1.6304,-2.4575,143.0325,50.37558552,16.28177650,0.51999998,
15:07:07:985,-0.1737,-0.6755,-0.0356,2.3770,1.6304,-2.4575,143.0325,50.37558552,16.28177650,0.51999998,
15:07:08:005,-0.1737,-0.6755,-0.0356,2.3770,1.6304,-2.4575,143.0325,50.37558552,16.28177650,0.51999998,
15:07:08:009,-0.1737,-0.6755,-0.0356,-1.3057,2.7696,-3.1234,143.0325,50.37558843,16.28180239,1.21000004,
15:07:08:011,0.0536,-0.5834,0.1133,-1.3057,2.7696,-3.1234,143.0325,50.37558843,16.28180239,1.21000004,
15:07:08:050,0.2950,-0.4753,0.1447,-1.3057,2.7696,-3.1234,143.0325,50.37558843,16.28180239,1.21000004,
15:07:08:053,0.4226,-0.3988,0.0762,-1.3057,2.7696,-3.1234,143.0325,50.37558843,16.28180239,1.21000004,
15:07:08:066,0.4226,-0.3988,0.0762,-1.3057,2.7696,-3.1234,159.0300,50.37558843,16.28180239,1.21000004,
15:07:08:069,0.4905,-0.3252,-0.0145,-1.3057,2.7696,-3.1234,159.0300,50.37558843,16.28180239,1.21000004,
15:07:08:073,0.4905,-0.3252,-0.0145,-1.3057,2.7696,-3.1234,159.0300,50.37558843,16.28180239,1.21000004,
15:07:08:078,0.4905,-0.3252,-0.0145,-1.7980,3.3850,-1.5059,159.0300,50.37558843,16.28180239,1.21000004,
15:07:08:134,0.4820,-0.2938,-0.0848,-1.7980,3.3850,-1.5059,159.0300,50.37558843,16.28180239,1.21000004,
15:07:08:136,0.4115,-0.3766,-0.0799,-1.7980,3.3850,-1.5059,159.0300,50.37558843,16.28180239,1.21000004,
15:07:08:138,0.3757,-0.5541,0.0213,-1.7980,3.3850,-1.5059,159.0300,50.37558843,16.28180239,1.21000004,
15:07:08:140,0.3757,-0.5541,0.0213,-1.7980,3.3850,-1.5059,159.0300,50.37558843,16.28180239,1.21000004,
15:07:08:145,0.3757,-0.5541,0.0213,2.4221,5.3370,-0.6953,159.0300,50.37558843,16.28180239,1.21000004,
15:07:08:151,0.2694,-0.9265,0.2106,2.4221,5.3370,-0.6953,159.0300,50.37558843,16.28180239,1.21000004,
15:07:08:209,0.2694,-0.9265,0.2106,2.4221,5.3370,-0.6953,159.0300,50.37558843,16.28180239,1.21000004,
15:07:08:213,0.2694,-0.9265,0.2106,1.5763,3.1923,-0.3367,159.0300,50.37558843,16.28180239,1.21000004,
15:07:08:217,-0.1390,-1.6249,0.7636,1.5763,3.1923,-0.3367,159.0300,50.37558843,16.28180239,1.21000004,
15:07:08:219,-0.7316,-2.3648,0.7811,1.5763,3.1923,-0.3367,159.0300,50.37558843,16.28180239,1.21000004,
15:07:08:221,-0.8363,-2.3485,0.9936,1.5763,3.1923,-0.3367,159.0300,50.37558843,16.28180239,1.21000004,
15:07:08:227,-0.8363,-2.3485,0.9936,1.5763,3.1923,-0.3367,137.0250,50.37558843,16.28180239,1.21000004,
15:07:08:277,-0.8363,-2.3485,0.9936,1.5763,3.1923,-0.3367,137.0250,50.37558843,16.28180239,1.21000004,
15:07:08:281,-0.8363,-2.3485,0.9936,-5.9997,-10.1717,6.7212,137.0250,50.37558843,16.28180239,1.21000004,
15:07:08:297,-0.3168,-1.5765,0.8650,-5.9997,-10.1717,6.7212,137.0250,50.37558843,16.28180239,1.21000004,
15:07:08:300,0.0342,-0.7981,0.4449,-5.9997,-10.1717,6.7212,137.0250,50.37558843,16.28180239,1.21000004,
15:07:08:303,0.1715,-0.4872,0.2101,-5.9997,-10.1717,6.7212,137.0250,50.37558843,16.28180239,1.21000004,
15:07:08:344,0.1715,-0.4872,0.2101,-5.9997,-10.1717,6.7212,137.0250,50.37558843,16.28180239,1.21000004,
15:07:08:349,0.1715,-0.4872,0.2101,-1.7744,0.4631,2.3455,137.0250,50.37558843,16.28180239,1.21000004,
15:07:08:363,0.7073,-0.9027,-0.0441,-1.7744,0.4631,2.3455,137.0250,50.37558843,16.28180239,1.21000004,
15:07:08:365,1.1294,-1.6582,-0.1402,-1.7744,0.4631,2.3455,137.0250,50.37558843,16.28180239,1.21000004,
15:07:08:367,0.5600,-1.6077,-0.1648,-1.7744,0.4631,2.3455,137.0250,50.37558843,16.28180239,1.21000004,
15:07:08:382,0.5642,-1.0945,-0.3700,-1.7744,0.4631,2.3455,137.0250,50.37558843,16.28180239,1.21000004,
15:07:08:384,0.1361,-0.6091,0.0588,-1.7744,0.4631,2.3455,137.0250,50.37558843,16.28180239,1.21000004,
15:07:08:387,0.1361,-0.6091,0.0588,-1.7744,0.4631,2.3455,142.0200,50.37558843,16.28180239,1.21000004,
15:07:08:412,0.1361,-0.6091,0.0588,-1.7744,0.4631,2.3455,142.0200,50.37558843,16.28180239,1.21000004,
15:07:08:416,0.1361,-0.6091,0.0588,5.5847,-3.5708,-2.1475,142.0200,50.37558843,16.28180239,1.21000004,
15:07:08:454,0.1025,-0.4023,0.3365,5.5847,-3.5708,-2.1475,142.0200,50.37558843,16.28180239,1.21000004,
15:07:08:458,0.3822,-0.5647,0.1087,5.5847,-3.5708,-2.1475,142.0200,50.37558843,16.28180239,1.21000004,
15:07:08:462,0.5521,-0.7564,0.1196,5.5847,-3.5708,-2.1475,142.0200,50.37558843,16.28180239,1.21000004,
15:07:08:480,0.5521,-0.7564,0.1196,5.5847,-3.5708,-2.1475,142.0200,50.37558843,16.28180239,1.21000004,
15:07:08:484,0.5521,-0.7564,0.1196,0.1994,3.8981,-0.2647,142.0200,50.37558843,16.28180239,1.21000004,
15:07:08:521,0.5070,-0.9895,0.1876,0.1994,3.8981,-0.2647,142.0200,50.37558843,16.28180239,1.21000004,
15:07:08:527,0.4473,-1.1667,0.1190,0.1994,3.8981,-0.2647,142.0200,50.37558843,16.28180239,1.21000004,
15:07:08:530,0.2605,-1.0901,-0.1071,0.1994,3.8981,-0.2647,142.0200,50.37558843,16.28180239,1.21000004,
15:07:08:547,0.2605,-1.0901,-0.1071,0.1994,3.8981,-0.2647,116.9775,50.37558843,16.28180239,1.21000004,
15:07:08:549,0.2605,-1.0901,-0.1071,0.1994,3.8981,-0.2647,116.9775,50.37558843,16.28180239,1.21000004,
15:07:08:550,0.1278,-0.9646,-0.1904,0.1994,3.8981,-0.2647,116.9775,50.37558843,16.28180239,1.21000004,
15:07:08:552,0.1278,-0.9646,-0.1904,1.9101,0.6296,0.4364,116.9775,50.37558843,16.28180239,1.21000004,
15:07:08:613,0.1903,-0.9146,-0.2956,1.9101,0.6296,0.4364,116.9775,50.37558843,16.28180239,1.21000004,
15:07:08:617,0.1201,-0.8642,-0.2453,1.9101,0.6296,0.4364,116.9775,50.37558843,16.28180239,1.21000004,
15:07:08:620,0.0971,-0.8845,-0.1356,1.9101,0.6296,0.4364,116.9775,50.37558843,16.28180239,1.21000004,
15:07:08:622,0.0971,-0.8845,-0.1356,1.9101,0.6296,0.4364,116.9775,50.37558843,16.28180239,1.21000004,
15:07:08:623,0.0971,-0.8845,-0.1356,-0.9408,-0.1831,-1.4831,116.9775,50.37558843,16.28180239,1.21000004,
15:07:08:680,0.1572,-0.9278,-0.0661,-0.9408,-0.1831,-1.4831,116.9775,50.37558843,16.28180239,1.21000004,
15:07:08:685,0.1883,-0.9294,-0.0848,-0.9408,-0.1831,-1.4831,116.9775,50.37558843,16.28180239,1.21000004,
15:07:08:689,0.1738,-0.9240,-0.1251,-0.9408,-0.1831,-1.4831,116.9775,50.37558843,16.28180239,1.21000004,
15:07:08:693,0.1842,-0.9091,-0.1255,-0.9408,-0.1831,-1.4831,116.9775,50.37558843,16.28180239,1.21000004,
15:07:08:696,0.1842,-0.9091,-0.1255,-0.9408,-0.1831,-1.4831,116.9775,50.37558843,16.28180239,1.21000004,
15:07:08:698,0.1842,-0.9091,-0.1255,-1.4520,0.7865,-0.8803,116.9775,50.37558843,16.28180239,1.21000004,
15:07:08:708,0.1842,-0.9091,-0.1255,-1.4520,0.7865,-0.8803,127.9800,50.37558843,16.28180239,1.21000004,
15:07:08:709,0.1820,-0.8834,-0.1038,-1.4520,0.7865,-0.8803,127.9800,50.37558843,16.28180239,1.21000004,
15:07:08:752,0.1820,-0.8834,-0.1038,-1.4520,0.7865,-0.8803,127.9800,50.37558843,16.28180239,1.21000004,
15:07:08:756,0.1820,-0.8834,-0.1038,-0.8395,0.4623,0.0465,127.9800,50.37558843,16.28180239,1.21000004,
15:07:08:775,0.1981,-0.8956,-0.0931,-0.8395,0.4623,0.0465,127.9800,50.37558843,16.28180239,1.21000004,
15:07:08:778,0.2479,-0.9461,-0.0876,-0.8395,0.4623,0.0465,127.9800,50.37558843,16.28180239,1.21000004,
15:07:08:779,0.2968,-0.9800,-0.0642,-0.8395,0.4623,0.0465,127.9800,50.37558843,16.28180239,1.21000004,
15:07:08:819,0.2968,-0.9800,-0.0642,-0.8395,0.4623,0.0465,127.9800,50.37558843,16.28180239,1.21000004,
15:07:08:823,0.2968,-0.9800,-0.0642,-0.3708,0.1049,1.4287,127.9800,50.37558843,16.28180239,1.21000004,
15:07:08:843,0.3153,-0.9763,0.0021,-0.3708,0.1049,1.4287,127.9800,50.37558843,16.28180239,1.21000004,
15:07:08:846,0.3324,-0.9551,0.0946,-0.3708,0.1049,1.4287,127.9800,50.37558843,16.28180239,1.21000004,
15:07:08:847,0.2939,-0.9323,0.2664,-0.3708,0.1049,1.4287,127.9800,50.37558843,16.28180239,1.21000004,
15:07:08:850,0.1673,-0.9756,0.4029,-0.3708,0.1049,1.4287,127.9800,50.37558843,16.28180239,1.21000004,
15:07:08:867,0.1673,-0.9756,0.4029,-0.3708,0.1049,1.4287,135.0000,50.37558843,16.28180239,1.21000004,
15:07:08:887,0.1673,-0.9756,0.4029,-0.3708,0.1049,1.4287,135.0000,50.37558843,16.28180239,1.21000004,
15:07:08:895,0.1673,-0.9756,0.4029,0.0898,-0.2670,2.5627,135.0000,50.37558843,16.28180239,1.21000004,
15:07:08:934,0.1022,-1.0447,0.2807,0.0898,-0.2670,2.5627,135.0000,50.37558843,16.28180239,1.21000004,
15:07:08:937,0.0910,-1.1640,0.0859,0.0898,-0.2670,2.5627,135.0000,50.37558843,16.28180239,1.21000004,
15:07:08:939,0.0969,-1.2728,-0.0956,0.0898,-0.2670,2.5627,135.0000,50.37558843,16.28180239,1.21000004,
15:07:08:941,0.1290,-1.2312,-0.0923,0.0898,-0.2670,2.5627,135.0000,50.37558843,16.28180239,1.21000004,
15:07:08:955,0.1290,-1.2312,-0.0923,0.0898,-0.2670,2.5627,135.0000,50.37558843,16.28180239,1.21000004,
15:07:08:958,0.1290,-1.2312,-0.0923,-1.5375,-1.0340,3.6982,135.0000,50.37558843,16.28180239,1.21000004,
15:07:08:967,0.0870,-1.1580,-0.0197,-1.5375,-1.0340,3.6982,135.0000,50.37558843,16.28180239,1.21000004,
15:07:09:001,0.0150,-1.1464,0.1680,-1.5375,-1.0340,3.6982,135.0000,50.37558843,16.28180239,1.21000004,
15:07:09:004,0.0358,-1.2822,0.4324,-1.5375,-1.0340,3.6982,135.0000,50.37558843,16.28180239,1.21000004,
15:07:09:022,0.0358,-1.2822,0.4324,-1.5375,-1.0340,3.6982,135.0000,50.37558843,16.28180239,1.21000004,
15:07:09:028,0.0358,-1.2822,0.4324,-1.2420,-2.1532,-0.3302,135.0000,50.37558843,16.28180239,1.21000004,
15:07:09:030,0.0358,-1.2822,0.4324,-1.2420,-2.1532,-0.3302,100.9800,50.37558843,16.28180239,1.21000004,
15:07:09:031,0.1619,-1.2712,0.6076,-1.2420,-2.1532,-0.3302,100.9800,50.37558843,16.28180239,1.21000004,
15:07:09:091,0.1619,-1.2712,0.6076,-1.2420,-2.1532,-0.3302,100.9800,50.37558843,16.28180239,1.21000004,
15:07:09:094,0.1619,-1.2712,0.6076,-0.4524,-2.1510,2.0009,100.9800,50.37558843,16.28180239,1.21000004,
15:07:09:096,0.3261,-1.2158,0.3765,-0.4524,-2.1510,2.0009,100.9800,50.37558843,16.28180239,1.21000004,
15:07:09:097,0.7392,-1.4298,-0.0529,-0.4524,-2.1510,2.0009,100.9800,50.37558843,16.28180239,1.21000004,
15:07:09:099,1.0029,-1.5653,-0.2887,-0.4524,-2.1510,2.0009,100.9800,50.37558843,16.28180239,1.21000004,
15:07:09:158,1.0029,-1.5653,-0.2887,-0.4524,-2.1510,2.0009,100.9800,50.37558843,16.28180239,1.21000004,
15:07:09:162,0.9663,-1.3909,-0.3387,-0.4524,-2.1510,2.0009,100.9800,50.37558843,16.28180239,1.21000004,
15:07:09:164,0.7883,-1.0622,-0.2450,-0.4524,-2.1510,2.0009,100.9800,50.37558843,16.28180239,1.21000004,
15:07:09:166,0.5814,-0.9288,-0.0077,-0.4524,-2.1510,2.0009,100.9800,50.37558843,16.28180239,1.21000004,
15:07:09:167,0.5814,-0.9288,-0.0077,6.4476,-3.7698,-3.5866,100.9800,50.37558843,16.28180239,1.21000004,
15:07:09:187,0.5814,-0.9288,-0.0077,6.4476,-3.7698,-3.5866,218.0250,50.37558843,16.28180239,1.21000004,
15:07:09:189,0.3957,-0.9931,0.1833,6.4476,-3.7698,-3.5866,218.0250,50.37558843,16.28180239,1.21000004,
15:07:09:226,0.3957,-0.9931,0.1833,6.4476,-3.7698,-3.5866,218.0250,50.37558843,16.28180239,1.21000004,
15:07:09:231,0.3957,-0.9931,0.1833,4.2436,-0.0102,-3.5548,218.0250,50.37558843,16.28180239,1.21000004,
15:07:09:254,0.3949,-0.9633,0.1154,4.2436,-0.0102,-3.5548,218.0250,50.37558843,16.28180239,1.21000004,
15:07:09:257,0.2805,-0.8386,-0.0379,4.2436,-0.0102,-3.5548,218.0250,50.37558843,16.28180239,1.21000004,
15:07:09:258,0.1332,-0.7239,-0.1961,4.2436,-0.0102,-3.5548,218.0250,50.37558843,16.28180239,1.21000004,
15:07:09:259,-0.0702,-0.6553,-0.3037,4.2436,-0.0102,-3.5548,218.0250,50.37558843,16.28180239,1.21000004,
15:07:09:294,-0.0702,-0.6553,-0.3037,4.2436,-0.0102,-3.5548,218.0250,50.37558843,16.28180239,1.21000004,
15:07:09:297,-0.0702,-0.6553,-0.3037,0.9728,1.6577,-2.5896,218.0250,50.37558843,16.28180239,1.21000004,
15:07:09:321,-0.1098,-0.6345,-0.1604,0.9728,1.6577,-2.5896,218.0250,50.37558843,16.28180239,1.21000004,
15:07:09:325,-0.0203,-0.6296,0.0288,0.9728,1.6577,-2.5896,218.0250,50.37558843,16.28180239,1.21000004,
15:07:09:327,0.2044,-0.5727,0.1616,0.9728,1.6577,-2.5896,218.0250,50.37558843,16.28180239,1.21000004,
15:07:09:347,0.2044,-0.5727,0.1616,0.9728,1.6577,-2.5896,292.0050,50.37558843,16.28180239,1.21000004,
15:07:09:349,0.3655,-0.4979,0.1231,0.9728,1.6577,-2.5896,292.0050,50.37558843,16.28180239,1.21000004,
15:07:09:361,0.3655,-0.4979,0.1231,0.9728,1.6577,-2.5896,292.0050,50.37558843,16.28180239,1.21000004,
15:07:09:365,0.3655,-0.4979,0.1231,-1.7857,3.4223,-3.0200,292.0050,50.37558843,16.28180239,1.21000004,
15:07:09:417,0.4201,-0.4073,0.0570,-1.7857,3.4223,-3.0200,292.0050,50.37558843,16.28180239,1.21000004,
15:07:09:421,0.4299,-0.3269,-0.0287,-1.7857,3.4223,-3.0200,292.0050,50.37558843,16.28180239,1.21000004,
15:07:09:425,0.3763,-0.2961,-0.0612,-1.7857,3.4223,-3.0200,292.0050,50.37558843,16.28180239,1.21000004,
15:07:09:429,0.3763,-0.2961,-0.0612,-1.7857,3.4223,-3.0200,292.0050,50.37558843,16.28180239,1.21000004,
15:07:09:435,0.3763,-0.2961,-0.0612,1.6778,4.5172,-0.4800,292.0050,50.37558843,16.28180239,1.21000004,
15:07:09:481,0.3250,-0.3838,-0.0502,1.6778,4.5172,-0.4800,292.0050,50.37558843,16.28180239,1.21000004,
15:07:09:485,0.3186,-0.5866,0.0070,1.6778,4.5172,-0.4800,292.0050,50.37558843,16.28180239,1.21000004,
15:07:09:489,0.2042,-0.9008,0.1677,1.6778,4.5172,-0.4800,292.0050,50.37558843,16.28180239,1.21000004,
15:07:09:498,0.2042,-0.9008,0.1677,1.6778,4.5172,-0.4800,292.0050,50.37558843,16.28180239,1.21000004,
15:07:09:501,0.2042,-0.9008,0.1677,1.1553,4.8015,-1.4605,292.0050,50.37558843,16.28180239,1.21000004,
15:07:09:507,0.2042,-0.9008,0.1677,1.1553,4.8015,-1.4605,362.0025,50.37558843,16.28180239,1.21000004,
15:07:09:509,-0.1148,-1.4158,0.5435,1.1553,4.8015,-1.4605,362.0025,50.37558843,16.28180239,1.21000004,
15:07:09:511,-0.5816,-2.0435,0.6921,1.1553,4.8015,-1.4605,362.0025,50.37558843,16.28180239,1.21000004,
15:07:09:562,-0.7854,-2.2093,0.5910,1.1553,4.8015,-1.4605,362.0025,50.37558843,16.28180239,1.21000004,
15:07:09:564,-0.5351,-1.8240,0.8104,1.1553,4.8015,-1.4605,362.0025,50.37558843,16.28180239,1.21000004,
15:07:09:565,-0.5351,-1.8240,0.8104,1.1553,4.8015,-1.4605,362.0025,50.37558843,16.28180239,1.21000004,
15:07:09:569,-0.5351,-1.8240,0.8104,-2.2446,-3.7210,3.0801,362.0025,50.37558843,16.28180239,1.21000004,
15:07:09:629,-0.0712,-1.2184,0.7008,-2.2446,-3.7210,3.0801,362.0025,50.37558843,16.28180239,1.21000004,
15:07:09:632,0.0515,-0.7106,0.5282,-2.2446,-3.7210,3.0801,362.0025,50.37558843,16.28180239,1.21000004,
15:07:09:633,0.1180,-0.5060,0.3661,-2.2446,-3.7210,3.0801,362.0025,50.37558843,16.28180239,1.21000004,
15:07:09:634,0.1180,-0.5060,0.3661,-2.2446,-3.7210,3.0801,362.0025,50.37558843,16.28180239,1.21000004,
15:07:09:637,0.1180,-0.5060,0.3661,-5.5655,-7.4541,5.0535,362.0025,50.37558843,16.28180239,1.21000004,
15:07:09:667,0.1180,-0.5060,0.3661,-5.5655,-7.4541,5.0535,353.0250,50.37558843,16.28180239,1.21000004,
15:07:09:670,0.6610,-0.9425,0.0043,-5.5655,-7.4541,5.0535,353.0250,50.37558843,16.28180239,1.21000004,
15:07:09:671,1.0502,-1.6330,-0.1601,-5.5655,-7.4541,5.0535,353.0250,50.37558843,16.28180239,1.21000004,
15:07:09:700,1.0502,-1.6330,-0.1601,-5.5655,-7.4541,5.0535,353.0250,50.37558843,16.28180239,1.21000004,
15:07:09:704,1.0502,-1.6330,-0.1601,1.0201,2.0774,0.7555,353.0250,50.37558843,16.28180239,1.21000004,
15:07:09:734,0.6350,-1.6670,-0.1584,1.0201,2.0774,0.7555,353.0250,50.37558843,16.28180239,1.21000004,
15:07:09:736,0.3868,-1.1700,-0.3117,1.0201,2.0774,0.7555,353.0250,50.37558843,16.28180239,1.21000004,
15:07:09:737,0.0116,-0.6693,0.1424,1.0201,2.0774,0.7555,353.0250,50.37558843,16.28180239,1.21000004,
15:07:09:769,0.0116,-0.6693,0.1424,1.0201,2.0774,0.7555,353.0250,50.37558843,16.28180239,1.21000004,
15:07:09:774,0.0116,-0.6693,0.1424,3.8889,-3.5356,-2.3652,353.0250,50.37558843,16.28180239,1.21000004,
15:07:09:797,0.1604,-0.5201,0.2226,3.8889,-3.5356,-2.3652,353.0250,50.37558843,16.28180239,1.21000004,
15:07:09:801,0.4330,-0.5635,0.0570,3.8889,-3.5356,-2.3652,353.0250,50.37558843,16.28180239,1.21000004,
15:07:09:804,0.4930,-0.6599,0.1428,3.8889,-3.5356,-2.3652,353.0250,50.37558843,16.28180239,1.21000004,
15:07:09:827,0.4930,-0.6599,0.1428,3.8889,-3.5356,-2.3652,326.9700,50.37558843,16.28180239,1.21000004,
15:07:09:829,0.4850,-0.8698,0.1742,3.8889,-3.5356,-2.3652,326.9700,50.37558843,16.28180239,1.21000004,
15:07:09:830,0.4598,-1.0691,0.1222,3.8889,-3.5356,-2.3652,326.9700,50.37558843,16.28180239,1.21000004,
15:07:09:836,0.4598,-1.0691,0.1222,3.8889,-3.5356,-2.3652,326.9700,50.37558843,16.28180239,1.21000004,
15:07:09:840,0.4598,-1.0691,0.1222,0.5167,4.1139,0.1570,326.9700,50.37558843,16.28180239,1.21000004,
15:07:09:895,0.3645,-1.0770,-0.0946,0.5167,4.1139,0.1570,326.9700,50.37558843,16.28180239,1.21000004,
15:07:09:896,0.1349,-0.9479,-0.2063,0.5167,4.1139,0.1570,326.9700,50.37558843,16.28180239,1.21000004,
15:07:09:897,0.1776,-0.9008,-0.2886,0.5167,4.1139,0.1570,326.9700,50.37558843,16.28180239,1.21000004,
15:07:09:903,0.1776,-0.9008,-0.2886,0.5167,4.1139,0.1570,326.9700,50.37558843,16.28180239,1.21000004,
15:07:09:907,0.1776,-0.9008,-0.2886,1.4867,0.0922,0.3874,326.9700,50.37558843,16.28180239,1.21000004,
15:07:09:938,0.1262,-0.8577,-0.2670,1.4867,0.0922,0.3874,326.9700,50.37558843,16.28180239,1.21000004,
15:07:09:941,0.0201,-0.8714,-0.1308,1.4867,0.0922,0.3874,326.9700,50.37558843,16.28180239,1.21000004,
15:07:09:973,0.0270,-0.9311,0.0272,1.4867,0.0922,0.3874,326.9700,50.37558843,16.28180239,1.21000004,
15:07:09:975,0.0270,-0.9311,0.0272,1.4867,0.0922,0.3874,326.9700,50.37558843,16.28180239,1.21000004,
15:07:09:976,0.0270,-0.9311,0.0272,-1.1841,0.6209,-1.7783,326.9700,50.37558843,16.28180239,1.21000004,
15:07:09:977,0.0950,-0.9455,0.0327,-1.1841,0.6209,-1.7783,326.9700,50.37558843,16.28180239,1.21000004,
15:07:09:988,0.0950,-0.9455,0.0327,-1.1841,0.6209,-1.7783,274.9950,50.37558843,16.28180239,1.21000004,
15:07:10:023,0.1180,-0.9406,-0.0325,-1.1841,0.6209,-1.7783,274.9950,50.37558843,16.28180239,1.21000004,
15:07:10:026,0.1196,-0.9536,-0.0809,-1.1841,0.6209,-1.7783,274.9950,50.37558292,16.28182722,1.27999997,
15:07:10:039,0.1196,-0.9536,-0.0809,-1.1841,0.6209,-1.7783,274.9950,50.37558292,16.28182722,1.27999997,
15:07:10:044,0.1196,-0.9536,-0.0809,-1.8531,0.5012,0.4768,274.9950,50.37558292,16.28182722,1.27999997,
15:07:10:100,0.1243,-0.9679,-0.0919,-1.8531,0.5012,0.4768,274.9950,50.37558292,16.28182722,1.27999997,
15:07:10:103,0.1452,-0.9638,-0.0878,-1.8531,0.5012,0.4768,274.9950,50.37558292,16.28182722,1.27999997,
15:07:10:104,0.1740,-0.9374,-0.0762,-1.8531,0.5012,0.4768,274.9950,50.37558292,16.28182722,1.27999997,
15:07:10:106,0.2161,-0.9328,-0.0736,-1.8531,0.5012,0.4768,274.9950,50.37558292,16.28182722,1.27999997,
15:07:10:107,0.2161,-0.9328,-0.0736,-1.8531,0.5012,0.4768,274.9950,50.37558292,16.28182722,1.27999997,
15:07:10:111,0.2161,-0.9328,-0.0736,-0.9790,0.0441,0.5732,274.9950,50.37558292,16.28182722,1.27999997,
15:07:10:167,0.2621,-0.9518,-0.0873,-0.9790,0.0441,0.5732,274.9950,50.37558292,16.28182722,1.27999997,
15:07:10:169,0.3583,-1.0107,-0.0776,-0.9790,0.0441,0.5732,274.9950,50.37558292,16.28182722,1.27999997,
15:07:10:171,0.4278,-1.0525,0.0415,-0.9790,0.0441,0.5732,274.9950,50.37558292,16.28182722,1.27999997,
15:07:10:175,0.4278,-1.0525,0.0415,-0.9790,0.0441,0.5732,274.9950,50.37558292,16.28182722,1.27999997,
15:07:10:179,0.4278,-1.0525,0.0415,-0.1698,0.0001,1.4274,274.9950,50.37558292,16.28182722,1.27999997,
15:07:10:234,0.3420,-1.0173,0.2672,-0.1698,0.0001,1.4274,274.9950,50.37558292,16.28182722,1.27999997,
15:07:10:238,0.2041,-1.0214,0.3698,-0.1698,0.0001,1.4274,274.9950,50.37558292,16.28182722,1.27999997,
15:07:10:240,0.0936,-1.1216,0.1914,-0.1698,0.0001,1.4274,274.9950,50.37558292,16.28182722,1.27999997,
15:07:10:243,0.0936,-1.1216,0.1914,-0.1698,0.0001,1.4274,274.9950,50.37558292,16.28182722,1.27999997,
15:07:10:248,0.0936,-1.1216,0.1914,1.0858,-0.6987,2.0781,274.9950,50.37558292,16.28182722,1.27999997,
15:07:10:260,0.0997,-1.2413,-0.0250,1.0858,-0.6987,2.0781,274.9950,50.37558292,16.28182722,1.27999997,
15:07:10:307,0.0997,-1.2413,-0.0250,1.0858,-0.6987,2.0781,176.9850,50.37558292,16.28182722,1.27999997,
15:07:10:310,0.1547,-1.2631,-0.1449,1.0858,-0.6987,2.0781,176.9850,50.37558292,16.28182722,1.27999997,
15:07:10:312,0.0975,-1.2459,-0.0573,1.0858,-0.6987,2.0781,176.9850,50.37558292,16.28182722,1.27999997,
15:07:10:314,0.0975,-1.2459,-0.0573,1.0858,-0.6987,2.0781,176.9850,50.37558292,16.28182722,1.27999997,
15:07:10:315,0.0975,-1.2459,-0.0573,-0.9743,-1.4712,3.0812,176.9850,50.37558292,16.28182722,1.27999997,
15:07:10:374,0.0023,-1.2734,0.2057,-0.9743,-1.4712,3.0812,176.9850,50.37558292,16.28182722,1.27999997,
15:07:10:376,-0.0383,-1.3133,0.5650,-0.9743,-1.4712,3.0812,176.9850,50.37558292,16.28182722,1.27999997,
15:07:10:378,0.0535,-1.2635,0.7524,-0.9743,-1.4712,3.0812,176.9850,50.37558292,16.28182722,1.27999997,
15:07:10:379,0.0535,-1.2635,0.7524,-0.9743,-1.4712,3.0812,176.9850,50.37558292,16.28182722,1.27999997,
15:07:10:382,0.0535,-1.2635,0.7524,-1.0274,-2.3994,-0.2023,176.9850,50.37558292,16.28182722,1.27999997,
15:07:10:442,0.2407,-1.1197,0.4635,-1.0274,-2.3994,-0.2023,176.9850,50.37558292,16.28182722,1.27999997,
15:07:10:444,0.6003,-1.2555,0.0503,-1.0274,-2.3994,-0.2023,176.9850,50.37558292,16.28182722,1.27999997,
15:07:10:446,0.8958,-1.5404,-0.2635,-1.0274,-2.3994,-0.2023,176.9850,50.37558292,16.28182722,1.27999997,
15:07:10:447,0.9295,-1.5613,-0.4485,-1.0274,-2.3994,-0.2023,176.9850,50.37558292,16.28182722,1.27999997,
15:07:10:449,0.9295,-1.5613,-0.4485,-1.0274,-2.3994,-0.2023,176.9850,50.37558292,16.28182722,1.27999997,
15:07:10:453,0.9295,-1.5613,-0.4485,0.1620,-1.9833,2.4905,176.9850,50.37558292,16.28182722,1.27999997,
15:07:10:467,0.9295,-1.5613,-0.4485,0.1620,-1.9833,2.4905,320.0175,50.37558292,16.28182722,1.27999997,
15:07:10:469,0.7887,-1.2689,-0.3805,0.1620,-1.9833,2.4905,320.0175,50.37558292,16.28182722,1.27999997,
15:07:10:495,0.5808,-0.9779,-0.2306,0.1620,-1.9833,2.4905,320.0175,50.37558292,16.28182722,1.27999997,
15:07:10:514,0.5808,-0.9779,-0.2306,0.1620,-1.9833,2.4905,320.0175,50.37558292,16.28182722,1.27999997,
15:07:10:518,0.5808,-0.9779,-0.2306,6.8906,-4.0332,-5.7691,320.0175,50.37558292,16.28182722,1.27999997,
15:07:10:563,0.3421,-0.9201,0.1068,6.8906,-4.0332,-5.7691,320.0175,50.37558292,16.28182722,1.27999997,
15:07:10:566,0.2925,-0.9238,0.1925,6.8906,-4.0332,-5.7691,320.0175,50.37558292,16.28182722,1.27999997,
15:07:10:568,0.2282,-0.8513,0.0814,6.8906,-4.0332,-5.7691,320.0175,50.37558292,16.28182722,1.27999997,
15:07:10:581,0.2282,-0.8513,0.0814,6.8906,-4.0332,-5.7691,320.0175,50.37558292,16.28182722,1.27999997,
15:07:10:586,0.2282,-0.8513,0.0814,2.4696,0.4966,-3.4550,320.0175,50.37558292,16.28182722,1.27999997,
15:07:10:627,0.2282,-0.8513,0.0814,2.4696,0.4966,-3.4550,535.0050,50.37558292,16.28182722,1.27999997,
15:07:10:631,0.1068,-0.7488,-0.0471,2.4696,0.4966,-3.4550,535.0050,50.37558292,16.28182722,1.27999997,
15:07:10:634,-0.0653,-0.7042,-0.1776,2.4696,0.4966,-3.4550,535.0050,50.37558292,16.28182722,1.27999997,
15:07:10:636,-0.1579,-0.6814,-0.1699,2.4696,0.4966,-3.4550,535.0050,50.37558292,16.28182722,1.27999997,
15:07:10:651,-0.1579,-0.6814,-0.1699,2.4696,0.4966,-3.4550,535.0050,50.37558292,16.28182722,1.27999997,
15:07:10:656,-0.1579,-0.6814,-0.1699,-0.3825,2.2036,-3.1246,535.0050,50.37558292,16.28182722,1.27999997,
15:07:10:694,-0.0941,-0.6706,-0.0319,-0.3825,2.2036,-3.1246,535.0050,50.37558292,16.28182722,1.27999997,
15:07:10:698,0.1805,-0.5751,0.1022,-0.3825,2.2036,-3.1246,535.0050,50.37558292,16.28182722,1.27999997,
15:07:10:700,0.3241,-0.4846,0.1185,-0.3825,2.2036,-3.1246,535.0050,50.37558292,16.28182722,1.27999997,
15:07:10:703,0.3656,-0.4186,0.0680,-0.3825,2.2036,-3.1246,535.0050,50.37558292,16.28182722,1.27999997,
15:07:10:718,0.3656,-0.4186,0.0680,-0.3825,2.2036,-3.1246,535.0050,50.37558292,16.28182722,1.27999997,
15:07:10:724,0.3656,-0.4186,0.0680,-1.1935,3.2505,-2.5227,535.0050,50.37558292,16.28182722,1.27999997,
15:07:10:744,0.3611,-0.3664,0.0273,-1.1935,3.2505,-2.5227,535.0050,50.37558292,16.28182722,1.27999997,
15:07:10:746,0.3280,-0.3275,0.0072,-1.1935,3.2505,-2.5227,535.0050,50.37558292,16.28182722,1.27999997,
15:07:10:786,0.3280,-0.3275,0.0072,-1.1935,3.2505,-2.5227,535.0050,50.37558292,16.28182722,1.27999997,
15:07:10:789,0.3280,-0.3275,0.0072,-1.1935,3.2505,-2.5227,579.0150,50.37558292,16.28182722,1.27999997,
15:07:10:791,0.2658,-0.3310,-0.0133,-1.1935,3.2505,-2.5227,579.0150,50.37558292,16.28182722,1.27999997,
15:07:10:792,0.2116,-0.3675,-0.0166,-1.1935,3.2505,-2.5227,579.0150,50.37558292,16.28182722,1.27999997,
15:07:10:794,0.2116,-0.3675,-0.0166,1.7757,4.8871,-1.2932,579.0150,50.37558292,16.28182722,1.27999997,
15:07:10:854,0.2116,-0.3675,-0.0166,1.7757,4.8871,-1.2932,579.0150,50.37558292,16.28182722,1.27999997,
15:07:10:857,0.1630,-0.4357,0.0436,1.7757,4.8871,-1.2932,579.0150,50.37558292,16.28182722,1.27999997,
15:07:10:860,0.1027,-0.5863,0.1931,1.7757,4.8871,-1.2932,579.0150,50.37558292,16.28182722,1.27999997,
15:07:10:862,-0.0278,-0.8736,0.4819,1.7757,4.8871,-1.2932,579.0150,50.37558292,16.28182722,1.27999997,
15:07:10:863,-0.0278,-0.8736,0.4819,0.2901,4.7420,-1.5712,579.0150,50.37558292,16.28182722,1.27999997,
15:07:10:921,-0.0278,-0.8736,0.4819,0.2901,4.7420,-1.5712,579.0150,50.37558292,16.28182722,1.27999997,
15:07:10:923,-0.1787,-1.3187,0.8215,0.2901,4.7420,-1.5712,579.0150,50.37558292,16.28182722,1.27999997,
15:07:10:925,-0.3397,-1.7114,0.9275,0.2901,4.7420,-1.5712,579.0150,50.37558292,16.28182722,1.27999997,
15:07:10:927,-0.5292,-1.7940,0.8748,0.2901,4.7420,-1.5712,579.0150,50.37558292,16.28182722,1.27999997,
15:07:10:928,-0.5292,-1.7940,0.8748,-1.8944,0.1423,2.8950,579.0150,50.37558292,16.28182722,1.27999997,
15:07:10:947,-0.5292,-1.7940,0.8748,-1.8944,0.1423,2.8950,498.0150,50.37558292,16.28182722,1.27999997,
15:07:10:952,-0.3402,-1.5449,0.8787,-1.8944,0.1423,2.8950,498.0150,50.37558292,16.28182722,1.27999997,
15:07:10:953,-0.0671,-1.1424,0.7688,-1.8944,0.1423,2.8950,498.0150,50.37558292,16.28182722,1.27999997,
15:07:10:978,0.0530,-0.7841,0.6235,-1.8944,0.1423,2.8950,498.0150,50.37558292,16.28182722,1.27999997,
15:07:10:988,0.0530,-0.7841,0.6235,-1.8944,0.1423,2.8950,498.0150,50.37558292,16.28182722,1.27999997,
15:07:10:992,0.0530,-0.7841,0.6235,-5.0716,-7.1673,6.8552,498.0150,50.37557287,16.28183702,1.24000001,
15:07:11:031,0.1302,-0.6213,0.4482,-5.0716,-7.1673,6.8552,498.0150,50.37557287,16.28183702,1.24000001,
15:07:11:033,0.2266,-0.7737,0.0664,-5.0716,-7.1673,6.8552,498.0150,50.37557287,16.28183702,1.24000001,
15:07:11:055,0.6264,-1.3328,-0.2806,-5.0716,-7.1673,6.8552,498.0150,50.37557287,16.28183702,1.24000001,
15:07:11:058,1.1219,-2.1552,-0.5565,-5.0716,-7.1673,6.8552,498.0150,50.37557287,16.28183702,1.24000001,
15:07:11:059,1.1219,-2.1552,-0.5565,-5.0716,-7.1673,6.8552,498.0150,50.37557287,16.28183702,1.24000001,
15:07:11:061,1.1219,-2.1552,-0.5565,-1.3345,0.5536,2.5114,498.0150,50.37557287,16.28183702,1.24000001,
15:07:11:107,1.1219,-2.1552,-0.5565,-1.3345,0.5536,2.5114,504.0225,50.37557287,16.28183702,1.24000001,
15:07:11:109,0.8840,-2.0763,-0.7630,-1.3345,0.5536,2.5114,504.0225,50.37557287,16.28183702,1.24000001,
15:07:11:111,0.8379,-1.2212,-0.6690,-1.3345,0.5536,2.5114,504.0225,50.37557287,16.28183702,1.24000001,
15:07:11:125,0.8379,-1.2212,-0.6690,-1.3345,0.5536,2.5114,504.0225,50.37557287,16.28183702,1.24000001,
15:07:11:129,0.8379,-1.2212,-0.6690,4.8392,-5.7566,-5.4617,504.0225,50.37557287,16.28183702,1.24000001,
15:07:11:174,0.5599,-0.8065,-0.1714,4.8392,-5.7566,-5.4617,504.0225,50.37557287,16.28183702,1.24000001,
15:07:11:176,0.3429,-0.7158,0.0104,4.8392,-5.7566,-5.4617,504.0225,50.37557287,16.28183702,1.24000001,
15:07:11:178,0.5277,-1.1819,0.0135,4.8392,-5.7566,-5.4617,504.0225,50.37557287,16.28183702,1.24000001,
15:07:11:193,0.5277,-1.1819,0.0135,4.8392,-5.7566,-5.4617,504.0225,50.37557287,16.28183702,1.24000001,
15:07:11:197,0.5277,-1.1819,0.0135,3.8146,-1.1686,-5.0522,504.0225,50.37557287,16.28183702,1.24000001,
15:07:11:211,0.6213,-1.5357,-0.0150,3.8146,-1.1686,-5.0522,504.0225,50.37557287,16.28183702,1.24000001,
15:07:11:213,0.4455,-1.2893,-0.0861,3.8146,-1.1686,-5.0522,504.0225,50.37557287,16.28183702,1.24000001,
15:07:11:260,0.4455,-1.2893,-0.0861,3.8146,-1.1686,-5.0522,504.0225,50.37557287,16.28183702,1.24000001,
15:07:11:264,0.4455,-1.2893,-0.0861,1.8655,-2.3723,0.1730,504.0225,50.37557287,16.28183702,1.24000001,
15:07:11:267,0.4455,-1.2893,-0.0861,1.8655,-2.3723,0.1730,517.9950,50.37557287,16.28183702,1.24000001,
15:07:11:269,0.2719,-0.9019,-0.1597,1.8655,-2.3723,0.1730,517.9950,50.37557287,16.28183702,1.24000001,
15:07:11:271,0.1953,-0.5668,-0.2987,1.8655,-2.3723,0.1730,517.9950,50.37557287,16.28183702,1.24000001,
15:07:11:272,0.1898,-0.5246,-0.2047,1.8655,-2.3723,0.1730,517.9950,50.37557287,16.28183702,1.24000001,
15:07:11:328,0.1898,-0.5246,-0.2047,1.8655,-2.3723,0.1730,517.9950,50.37557287,16.28183702,1.24000001,
15:07:11:331,0.1898,-0.5246,-0.2047,-0.6998,2.8266,0.1753,517.9950,50.37557287,16.28183702,1.24000001,
15:07:11:334,0.0846,-0.5041,-0.0729,-0.6998,2.8266,0.1753,517.9950,50.37557287,16.28183702,1.24000001,
15:07:11:336,0.0281,-0.4560,-0.0215,-0.6998,2.8266,0.1753,517.9950,50.37557287,16.28183702,1.24000001,
15:07:11:338,0.0529,-0.5853,0.0843,-0.6998,2.8266,0.1753,517.9950,50.37557287,16.28183702,1.24000001,
15:07:11:395,0.0529,-0.5853,0.0843,-0.6998,2.8266,0.1753,517.9950,50.37557287,16.28183702,1.24000001,
15:07:11:399,0.0529,-0.5853,0.0843,-2.3948,3.7117,2.6623,517.9950,50.37557287,16.28183702,1.24000001,
15:07:11:402,-0.0103,-0.7700,0.2030,-2.3948,3.7117,2.6623,517.9950,50.37557287,16.28183702,1.24000001,
15:07:11:405,-0.0234,-0.8743,0.2597,-2.3948,3.7117,2.6623,517.9950,50.37557287,16.28183702,1.24000001,
15:07:11:408,0.0674,-0.9292,0.2297,-2.3948,3.7117,2.6623,517.9950,50.37557287,16.28183702,1.24000001,
15:07:11:427,0.0674,-0.9292,0.2297,-2.3948,3.7117,2.6623,390.0150,50.37557287,16.28183702,1.24000001,
15:07:11:429,0.1595,-0.9881,0.1880,-2.3948,3.7117,2.6623,390.0150,50.37557287,16.28183702,1.24000001,
15:07:11:443,0.2396,-1.0621,0.1644,-2.3948,3.7117,2.6623,390.0150,50.37557287,16.28183702,1.24000001,
15:07:11:462,0.2396,-1.0621,0.1644,-2.3948,3.7117,2.6623,390.0150,50.37557287,16.28183702,1.24000001,
15:07:11:467,0.2396,-1.0621,0.1644,-2.5022,-0.0289,4.9418,390.0150,50.37557287,16.28183702,1.24000001,
15:07:11:511,0.2212,-1.0919,0.1795,-2.5022,-0.0289,4.9418,390.0150,50.37557287,16.28183702,1.24000001,
15:07:11:514,0.1394,-1.1492,0.1948,-2.5022,-0.0289,4.9418,390.0150,50.37557287,16.28183702,1.24000001,
15:07:11:517,-0.0239,-1.2182,0.1703,-2.5022,-0.0289,4.9418,390.0150,50.37557287,16.28183702,1.24000001,
15:07:11:532,-0.0239,-1.2182,0.1703,-2.5022,-0.0289,4.9418,390.0150,50.37557287,16.28183702,1.24000001,
15:07:11:536,-0.0239,-1.2182,0.1703,-0.9361,-1.8333,3.9772,390.0150,50.37557287,16.28183702,1.24000001,
15:07:11:578,-0.1735,-1.3357,0.0366,-0.9361,-1.8333,3.9772,390.0150,50.37557287,16.28183702,1.24000001,
15:07:11:581,-0.1637,-1.4458,-0.0968,-0.9361,-1.8333,3.9772,390.0150,50.37557287,16.28183702,1.24000001,
15:07:11:585,-0.0195,-1.3476,-0.0519,-0.9361,-1.8333,3.9772,390.0150,50.37557287,16.28183702,1.24000001,
15:07:11:588,-0.0195,-1.3476,-0.0519,-0.9361,-1.8333,3.9772,315.9675,50.37557287,16.28183702,1.24000001,
15:07:11:589,0.1387,-1.2635,0.3812,-0.9361,-1.8333,3.9772,315.9675,50.37557287,16.28183702,1.24000001,
15:07:11:599,0.1387,-1.2635,0.3812,-0.9361,-1.8333,3.9772,315.9675,50.37557287,16.28183702,1.24000001,
15:07:11:604,0.1387,-1.2635,0.3812,-3.2583,-3.5932,2.5355,315.9675,50.37557287,16.28183702,1.24000001,
15:07:11:654,0.0787,-1.3082,0.6331,-3.2583,-3.5932,2.5355,315.9675,50.37557287,16.28183702,1.24000001,
15:07:11:656,-0.1152,-1.5285,0.5473,-3.2583,-3.5932,2.5355,315.9675,50.37557287,16.28183702,1.24000001,
15:07:11:658,-0.0809,-1.6644,0.2370,-3.2583,-3.5932,2.5355,315.9675,50.37557287,16.28183702,1.24000001,
15:07:11:666,-0.0809,-1.6644,0.2370,-3.2583,-3.5932,2.5355,315.9675,50.37557287,16.28183702,1.24000001,
15:07:11:672,-0.0809,-1.6644,0.2370,-1.2525,-3.0083,2.2768,315.9675,50.37557287,16.28183702,1.24000001,
15:07:11:675,0.3049,-1.8105,-0.1273,-1.2525,-3.0083,2.2768,315.9675,50.37557287,16.28183702,1.24000001,
15:07:11:735,0.3049,-1.8105,-0.1273,-1.2525,-3.0083,2.2768,315.9675,50.37557287,16.28183702,1.24000001,
15:07:11:740,0.3049,-1.8105,-0.1273,-0.2680,-6.1314,-0.7217,315.9675,50.37557287,16.28183702,1.24000001,
15:07:11:743,0.8181,-2.0821,-0.3908,-0.2680,-6.1314,-0.7217,315.9675,50.37557287,16.28183702,1.24000001,
15:07:11:745,0.9587,-2.0633,-0.5227,-0.2680,-6.1314,-0.7217,315.9675,50.37557287,16.28183702,1.24000001,
15:07:11:747,0.8607,-1.5997,-0.4242,-0.2680,-6.1314,-0.7217,315.9675,50.37557287,16.28183702,1.24000001,
15:07:11:748,0.8607,-1.5997,-0.4242,-0.2680,-6.1314,-0.7217,369.9675,50.37557287,16.28183702,1.24000001,
15:07:11:802,0.8607,-1.5997,-0.4242,-0.2680,-6.1314,-0.7217,369.9675,50.37557287,16.28183702,1.24000001,
15:07:11:806,0.8607,-1.5997,-0.4242,7.5594,-6.8288,-6.7788,369.9675,50.37557287,16.28183702,1.24000001,
15:07:11:814,0.8313,-1.1479,-0.1937,7.5594,-6.8288,-6.7788,369.9675,50.37557287,16.28183702,1.24000001,
15:07:11:818,0.6585,-0.9845,0.0469,7.5594,-6.8288,-6.7788,369.9675,50.37557287,16.28183702,1.24000001,
15:07:11:820,0.6283,-0.9533,-0.0441,7.5594,-6.8288,-6.7788,369.9675,50.37557287,16.28183702,1.24000001,
15:07:11:871,0.6283,-0.9533,-0.0441,7.5594,-6.8288,-6.7788,369.9675,50.37557287,16.28183702,1.24000001,
15:07:11:874,0.6283,-0.9533,-0.0441,5.0702,1.3504,-2.9653,369.9675,50.37557287,16.28183702,1.24000001,
15:07:11:881,0.4895,-0.8448,-0.1442,5.0702,1.3504,-2.9653,369.9675,50.37557287,16.28183702,1.24000001,
15:07:11:884,0.2177,-0.7429,-0.2569,5.0702,1.3504,-2.9653,369.9675,50.37557287,16.28183702,1.24000001,
15:07:11:887,-0.0490,-0.6884,-0.2761,5.0702,1.3504,-2.9653,369.9675,50.37557287,16.28183702,1.24000001,
15:07:11:889,-0.1275,-0.6467,-0.1129,5.0702,1.3504,-2.9653,369.9675,50.37557287,16.28183702,1.24000001,
15:07:11:906,-0.1275,-0.6467,-0.1129,5.0702,1.3504,-2.9653,580.9725,50.37557287,16.28183702,1.24000001,
15:07:11:908,-0.0432,-0.5482,-0.0216,5.0702,1.3504,-2.9653,580.9725,50.37557287,16.28183702,1.24000001,
15:07:11:938,-0.0432,-0.5482,-0.0216,5.0702,1.3504,-2.9653,580.9725,50.37557287,16.28183702,1.24000001,
15:07:11:943,-0.0432,-0.5482,-0.0216,0.2228,3.5052,-4.2241,580.9725,50.37557287,16.28183702,1.24000001,
15:07:11:966,0.2069,-0.3263,-0.0206,0.2228,3.5052,-4.2241,580.9725,50.37557287,16.28183702,1.24000001,
15:07:11:968,0.2417,-0.1632,-0.1125,0.2228,3.5052,-4.2241,580.9725,50.37557287,16.28183702,1.24000001,
15:07:11:969,0.2669,-0.0692,-0.1873,0.2228,3.5052,-4.2241,580.9725,50.37557287,16.28183702,1.24000001,
15:07:12:006,0.2669,-0.0692,-0.1873,0.2228,3.5052,-4.2241,580.9725,50.37557287,16.28183702,1.24000001,
15:07:12:011,0.2669,-0.0692,-0.1873,0.5918,6.1349,-2.3378,580.9725,50.37556005,16.28184481,1.46000004,
15:07:12:037,0.3073,-0.0373,-0.2243,0.5918,6.1349,-2.3378,580.9725,50.37556005,16.28184481,1.46000004,
15:07:12:038,0.3415,-0.0219,-0.2114,0.5918,6.1349,-2.3378,580.9725,50.37556005,16.28184481,1.46000004,
15:07:12:039,0.3601,-0.0363,-0.1773,0.5918,6.1349,-2.3378,580.9725,50.37556005,16.28184481,1.46000004,
15:07:12:050,0.3278,-0.0773,-0.1553,0.5918,6.1349,-2.3378,580.9725,50.37556005,16.28184481,1.46000004,
15:07:12:067,0.3278,-0.0773,-0.1553,0.5918,6.1349,-2.3378,596.9700,50.37556005,16.28184481,1.46000004,
15:07:12:074,0.3278,-0.0773,-0.1553,0.5918,6.1349,-2.3378,596.9700,50.37556005,16.28184481,1.46000004,
15:07:12:078,0.3278,-0.0773,-0.1553,1.6829,8.2604,-3.0631,596.9700,50.37556005,16.28184481,1.46000004,
15:07:12:135,0.2702,-0.2458,-0.0143,1.6829,8.2604,-3.0631,596.9700,50.37556005,16.28184481,1.46000004,
15:07:12:137,0.2111,-1.1367,1.8090,1.6829,8.2604,-3.0631,596.9700,50.37556005,16.28184481,1.46000004,
15:07:12:138,-0.2478,-3.2028,1.7935,1.6829,8.2604,-3.0631,596.9700,50.37556005,16.28184481,1.46000004,
15:07:12:140,-0.3473,-2.8293,0.6988,1.6829,8.2604,-3.0631,596.9700,50.37556005,16.28184481,1.46000004,
15:07:12:142,-0.3473,-2.8293,0.6988,1.6829,8.2604,-3.0631,596.9700,50.37556005,16.28184481,1.46000004,
15:07:12:145,-0.3473,-2.8293,0.6988,1.5019,6.0633,-1.2392,596.9700,50.37556005,16.28184481,1.46000004,
