
time,ax,ay,az,wx,wy,wz,I,Latitude,Longitude,Speed (m/s),
13:20:04:811,0.0000,0.0000,0.0000,0.0000,0.0000,0.0000,202.9725,0.00000000,0.00000000,0.00000000,
13:20:04:850,0.0000,0.0000,0.0000,0.0000,0.0000,0.0000,202.9725,50.37325180,16.31052800,0.00000000,
13:20:04:860,0.0000,0.0000,0.0000,0.1736,0.0334,0.0565,202.9725,50.37325180,16.31052800,0.00000000,
13:20:04:916,0.0000,0.0000,0.0000,0.1736,0.0334,0.0565,202.9725,50.37325180,16.31052800,0.00000000,
13:20:04:928,0.0000,0.0000,0.0000,-0.2669,0.1168,0.0108,202.9725,50.37325180,16.31052800,0.00000000,
13:20:04:943,0.0000,0.0000,0.0000,-0.2669,0.1168,0.0108,202.9725,50.37325180,16.31052800,0.00000000,
13:20:04:965,0.0000,0.0000,0.0000,-0.2669,0.1168,0.0108,204.9975,50.37325180,16.31052800,0.00000000,
13:20:04:983,0.0000,0.0000,0.0000,-0.2669,0.1168,0.0108,204.9975,50.37325180,16.31052800,0.00000000,
13:20:04:996,0.0000,0.0000,0.0000,-0.4224,0.1069,-0.0005,204.9975,50.37325180,16.31052800,0.00000000,
13:20:05:008,-0.0136,0.0870,0.0615,-0.4224,0.1069,-0.0005,204.9975,50.37325180,16.31052800,0.00000000,
13:20:05:050,-0.0136,0.0870,0.0615,-0.4224,0.1069,-0.0005,204.9975,50.37325180,16.31052800,0.00000000,
13:20:05:064,-0.0136,0.0870,0.0615,-0.1555,0.0702,0.0021,204.9975,50.37325180,16.31052800,0.00000000,
13:20:05:077,-0.0020,-0.1166,0.3922,-0.1555,0.0702,0.0021,204.9975,50.37325180,16.31052800,0.00000000,
13:20:05:118,-0.0020,-0.1166,0.3922,-0.1555,0.0702,0.0021,204.9975,50.37325180,16.31052800,0.00000000,
13:20:05:131,-0.0020,-0.1166,0.3922,0.1571,0.0296,-0.0185,204.9975,50.37325180,16.31052800,0.00000000,
13:20:05:144,-0.1105,-0.3189,0.5017,0.1571,0.0296,-0.0185,204.9975,50.37325180,16.31052800,0.00000000,
13:20:05:187,-0.1105,-0.3189,0.5017,0.1571,0.0296,-0.0185,204.9975,50.37325180,16.31052800,0.00000000,
13:20:05:199,-0.1105,-0.3189,0.5017,0.1903,0.0290,0.0463,204.9975,50.37325180,16.31052800,0.00000000,
13:20:05:214,-0.2379,-0.3855,0.2500,0.1903,0.0290,0.0463,204.9975,50.37325180,16.31052800,0.00000000,
13:20:05:256,-0.2379,-0.3855,0.2500,0.1903,0.0290,0.0463,204.9975,50.37325180,16.31052800,0.00000000,
13:20:05:267,-0.2379,-0.3855,0.2500,0.0292,0.0096,0.1029,204.9975,50.37325180,16.31052800,0.00000000,
13:20:05:280,-0.2117,-0.2322,-0.0753,0.0292,0.0096,0.1029,204.9975,50.37325180,16.31052800,0.00000000,
13:20:05:285,-0.2117,-0.2322,-0.0753,0.0292,0.0096,0.1029,206.0100,50.37325180,16.31052800,0.00000000,
13:20:05:321,-0.2117,-0.2322,-0.0753,0.0292,0.0096,0.1029,206.0100,50.37325180,16.31052800,0.00000000,
13:20:05:335,-0.2117,-0.2322,-0.0753,-0.0339,0.0580,0.0739,206.0100,50.37325180,16.31052800,0.00000000,
13:20:05:347,0.0128,-0.0250,-0.0502,-0.0339,0.0580,0.0739,206.0100,50.37325180,16.31052800,0.00000000,
13:20:05:391,0.0128,-0.0250,-0.0502,-0.0339,0.0580,0.0739,206.0100,50.37325180,16.31052800,0.00000000,
13:20:05:402,0.0128,-0.0250,-0.0502,-0.0006,0.0180,0.0385,206.0100,50.37325180,16.31052800,0.00000000,
13:20:05:415,0.0757,0.0348,0.0141,-0.0006,0.0180,0.0385,206.0100,50.37325180,16.31052800,0.00000000,
13:20:05:445,0.0757,0.0348,0.0141,-0.0006,0.0180,0.0385,208.9800,50.37325180,16.31052800,0.00000000,
13:20:05:458,0.0757,0.0348,0.0141,-0.0006,0.0180,0.0385,208.9800,50.37325180,16.31052800,0.00000000,
13:20:05:470,0.0757,0.0348,0.0141,0.0449,0.0168,0.0040,208.9800,50.37325180,16.31052800,0.00000000,
13:20:05:482,0.0968,0.0077,0.1433,0.0449,0.0168,0.0040,208.9800,50.37325180,16.31052800,0.00000000,
13:20:05:526,0.0968,0.0077,0.1433,0.0449,0.0168,0.0040,208.9800,50.37325180,16.31052800,0.00000000,
13:20:05:539,0.0968,0.0077,0.1433,0.0376,0.0241,-0.0008,208.9800,50.37325180,16.31052800,0.00000000,
13:20:05:551,-0.0440,-0.0806,-0.0124,0.0376,0.0241,-0.0008,208.9800,50.37325180,16.31052800,0.00000000,
13:20:05:595,-0.0440,-0.0806,-0.0124,0.0376,0.0241,-0.0008,208.9800,50.37325180,16.31052800,0.00000000,
13:20:05:607,-0.0440,-0.0806,-0.0124,0.0089,-0.0063,0.0502,208.9800,50.37325180,16.31052800,0.00000000,
13:20:05:619,-0.1125,-0.0963,-0.0339,0.0089,-0.0063,0.0502,208.9800,50.37325180,16.31052800,0.00000000,
13:20:05:661,-0.1125,-0.0963,-0.0339,0.0089,-0.0063,0.0502,208.9800,50.37325180,16.31052800,0.00000000,
13:20:05:676,-0.1125,-0.0963,-0.0339,-0.0020,-0.0107,0.0176,208.9800,50.37325180,16.31052800,0.00000000,
13:20:05:687,-0.0383,-0.0641,-0.0112,-0.0020,-0.0107,0.0176,208.9800,50.37325180,16.31052800,0.00000000,
13:20:05:729,-0.0383,-0.0641,-0.0112,-0.0020,-0.0107,0.0176,208.9800,50.37325180,16.31052800,0.00000000,
13:20:05:742,-0.0383,-0.0641,-0.0112,-0.0024,0.0145,0.0437,208.9800,50.37325180,16.31052800,0.00000000,
13:20:05:755,-0.0237,-0.0015,0.0351,-0.0024,0.0145,0.0437,208.9800,50.37325180,16.31052800,0.00000000,
13:20:05:797,-0.0237,-0.0015,0.0351,-0.0024,0.0145,0.0437,208.9800,50.37325180,16.31052800,0.00000000,
13:20:05:809,-0.0237,-0.0015,0.0351,-0.0162,0.0063,0.0073,208.9800,50.37325180,16.31052800,0.00000000,
13:20:05:823,0.0484,0.0399,0.0067,-0.0162,0.0063,0.0073,208.9800,50.37325180,16.31052800,0.00000000,
13:20:05:866,0.0484,0.0399,0.0067,-0.0162,0.0063,0.0073,208.9800,50.37325180,16.31052800,0.00000000,
13:20:05:877,0.0484,0.0399,0.0067,-0.0319,0.0176,-0.0060,208.9800,50.37325180,16.31052800,0.00000000,
13:20:05:889,0.0435,0.0355,0.0109,-0.0319,0.0176,-0.0060,208.9800,50.37325180,16.31052800,0.00000000,
13:20:05:933,0.0435,0.0355,0.0109,-0.0319,0.0176,-0.0060,208.9800,50.37325180,16.31052800,0.00000000,
13:20:05:946,0.0435,0.0355,0.0109,0.0257,0.0090,0.0183,208.9800,50.37325180,16.31052800,0.00000000,
13:20:05:959,-0.0374,-0.0259,0.0810,0.0257,0.0090,0.0183,208.9800,50.37325180,16.31052800,0.00000000,
13:20:06:000,-0.0374,-0.0259,0.0810,0.0257,0.0090,0.0183,208.9800,50.37325180,16.31052800,0.00000000,
13:20:06:013,-0.0374,-0.0259,0.0810,-0.0119,0.0073,0.0136,208.9800,50.37325180,16.31052800,0.00000000,
13:20:06:026,-0.0110,-0.0378,-0.0233,-0.0119,0.0073,0.0136,208.9800,50.37325180,16.31052800,0.00000000,
13:20:06:068,-0.0110,-0.0378,-0.0233,-0.0119,0.0073,0.0136,208.9800,50.37325180,16.31052800,0.00000000,
13:20:06:080,-0.0110,-0.0378,-0.0233,-0.0487,-0.0011,0.0174,208.9800,50.37325180,16.31052800,0.00000000,
13:20:06:085,-0.0110,-0.0378,-0.0233,-0.0487,-0.0011,0.0174,209.9925,50.37325180,16.31052800,0.00000000,
13:20:06:093,-0.0356,0.0114,-0.0708,-0.0487,-0.0011,0.0174,209.9925,50.37325180,16.31052800,0.00000000,
13:20:06:136,-0.0356,0.0114,-0.0708,-0.0487,-0.0011,0.0174,209.9925,50.37325180,16.31052800,0.00000000,
13:20:06:149,-0.0356,0.0114,-0.0708,0.0038,0.0128,0.0218,209.9925,50.37325180,16.31052800,0.00000000,
13:20:06:161,-0.0498,-0.0118,0.0862,0.0038,0.0128,0.0218,209.9925,50.37325180,16.31052800,0.00000000,
13:20:06:203,-0.0498,-0.0118,0.0862,0.0038,0.0128,0.0218,209.9925,50.37325180,16.31052800,0.00000000,
13:20:06:217,-0.0498,-0.0118,0.0862,-0.0020,0.0023,0.0133,209.9925,50.37325180,16.31052800,0.00000000,
13:20:06:229,0.0311,0.0146,0.0583,-0.0020,0.0023,0.0133,209.9925,50.37325180,16.31052800,0.00000000,
13:20:06:272,0.0311,0.0146,0.0583,-0.0020,0.0023,0.0133,209.9925,50.37325180,16.31052800,0.00000000,
13:20:06:283,0.0311,0.0146,0.0583,-0.0166,0.0273,0.0035,209.9925,50.37325180,16.31052800,0.00000000,
13:20:06:296,0.0543,0.0270,-0.0185,-0.0166,0.0273,0.0035,209.9925,50.37325180,16.31052800,0.00000000,
13:20:06:341,0.0543,0.0270,-0.0185,-0.0166,0.0273,0.0035,209.9925,50.37325180,16.31052800,0.00000000,
13:20:06:352,0.0543,0.0270,-0.0185,-0.0192,0.0127,0.0061,209.9925,50.37325180,16.31052800,0.00000000,
13:20:06:364,-0.0023,0.0033,-0.0002,-0.0192,0.0127,0.0061,209.9925,50.37325180,16.31052800,0.00000000,
13:20:06:405,-0.0023,0.0033,-0.0002,-0.0192,0.0127,0.0061,211.0050,50.37325180,16.31052800,0.00000000,
13:20:06:407,-0.0023,0.0033,-0.0002,-0.0192,0.0127,0.0061,211.0050,50.37325180,16.31052800,0.00000000,
13:20:06:420,-0.0023,0.0033,-0.0002,-0.0032,-0.0063,0.0142,211.0050,50.37325180,16.31052800,0.00000000,
13:20:06:432,-0.0330,-0.0322,0.0029,-0.0032,-0.0063,0.0142,211.0050,50.37325180,16.31052800,0.00000000,
13:20:06:476,-0.0330,-0.0322,0.0029,-0.0032,-0.0063,0.0142,211.0050,50.37325180,16.31052800,0.00000000,
13:20:06:488,-0.0330,-0.0322,0.0029,0.0067,0.0053,0.0211,211.0050,50.37325180,16.31052800,0.00000000,
13:20:06:500,-0.0596,-0.0479,0.0225,0.0067,0.0053,0.0211,211.0050,50.37325180,16.31052800,0.00000000,
13:20:06:545,-0.0596,-0.0479,0.0225,0.0067,0.0053,0.0211,211.0050,50.37325180,16.31052800,0.00000000,
13:20:06:556,-0.0596,-0.0479,0.0225,-0.0119,0.0140,0.0183,211.0050,50.37325180,16.31052800,0.00000000,
13:20:06:568,0.0224,0.0186,0.0309,-0.0119,0.0140,0.0183,211.0050,50.37325180,16.31052800,0.00000000,
13:20:06:616,0.0224,0.0186,0.0309,-0.0119,0.0140,0.0183,211.0050,50.37325180,16.31052800,0.00000000,
13:20:06:625,0.0224,0.0186,0.0309,0.0032,0.0240,0.0084,211.0050,50.37562072,16.28185562,0.20000000,
13:20:06:635,0.0167,0.0091,0.0151,0.0032,0.0240,0.0084,211.0050,50.37562072,16.28185562,0.20000000,
13:20:06:677,0.0167,0.0091,0.0151,0.0032,0.0240,0.0084,211.0050,50.37562072,16.28185562,0.20000000,
13:20:06:690,0.0167,0.0091,0.0151,0.0110,0.0206,-0.0086,211.0050,50.37562072,16.28185562,0.20000000,
13:20:06:703,0.0715,0.0305,0.0378,0.0110,0.0206,-0.0086,211.0050,50.37562072,16.28185562,0.20000000,
13:20:06:725,0.0715,0.0305,0.0378,0.0110,0.0206,-0.0086,212.0175,50.37562072,16.28185562,0.20000000,
13:20:06:746,0.0715,0.0305,0.0378,0.0110,0.0206,-0.0086,212.0175,50.37562072,16.28185562,0.20000000,
13:20:06:759,0.0715,0.0305,0.0378,0.0034,-0.0021,-0.0096,212.0175,50.37562072,16.28185562,0.20000000,
13:20:06:772,0.0027,-0.0119,-0.0457,0.0034,-0.0021,-0.0096,212.0175,50.37562072,16.28185562,0.20000000,
13:20:06:814,0.0027,-0.0119,-0.0457,0.0034,-0.0021,-0.0096,212.0175,50.37562072,16.28185562,0.20000000,
13:20:06:827,0.0027,-0.0119,-0.0457,0.1071,-0.0223,0.0234,212.0175,50.37562072,16.28185562,0.20000000,
13:20:06:839,-0.0761,-0.1322,0.0492,0.1071,-0.0223,0.0234,212.0175,50.37562072,16.28185562,0.20000000,
13:20:06:883,-0.0761,-0.1322,0.0492,0.1071,-0.0223,0.0234,212.0175,50.37562072,16.28185562,0.20000000,
13:20:06:885,-0.0761,-0.1322,0.0492,0.1071,-0.0223,0.0234,213.0300,50.37562072,16.28185562,0.20000000,
13:20:06:895,-0.0761,-0.1322,0.0492,0.3063,-0.0160,0.0437,213.0300,50.37562072,16.28185562,0.20000000,
13:20:06:908,-0.0714,-0.2543,0.3912,0.3063,-0.0160,0.0437,213.0300,50.37562072,16.28185562,0.20000000,
13:20:06:949,-0.0714,-0.2543,0.3912,0.3063,-0.0160,0.0437,213.0300,50.37562072,16.28185562,0.20000000,
13:20:06:962,-0.0714,-0.2543,0.3912,0.0293,0.0136,0.0183,213.0300,50.37562072,16.28185562,0.20000000,
13:20:06:974,-0.0169,-0.0128,-0.1710,0.0293,0.0136,0.0183,213.0300,50.37562072,16.28185562,0.20000000,
13:20:07:018,-0.0169,-0.0128,-0.1710,0.0293,0.0136,0.0183,213.0300,50.37562072,16.28185562,0.20000000,
13:20:07:030,-0.0169,-0.0128,-0.1710,-0.1814,-0.0037,0.0183,213.0300,50.37562072,16.28185562,0.20000000,
13:20:07:042,0.0118,0.1926,-0.4551,-0.1814,-0.0037,0.0183,213.0300,50.37562072,16.28185562,0.20000000,
13:20:07:045,0.0118,0.1926,-0.4551,-0.1814,-0.0037,0.0183,213.9750,50.37562072,16.28185562,0.20000000,
13:20:07:085,0.0118,0.1926,-0.4551,-0.1814,-0.0037,0.0183,213.9750,50.37562072,16.28185562,0.20000000,
13:20:07:098,0.0118,0.1926,-0.4551,0.0481,0.0316,0.0218,213.9750,50.37562072,16.28185562,0.20000000,
13:20:07:111,0.0421,-0.0321,0.2353,0.0481,0.0316,0.0218,213.9750,50.37562072,16.28185562,0.20000000,
13:20:07:153,0.0421,-0.0321,0.2353,0.0481,0.0316,0.0218,213.9750,50.37562072,16.28185562,0.20000000,
13:20:07:165,0.0421,-0.0321,0.2353,0.1145,-0.0428,0.0249,213.9750,50.37562072,16.28185562,0.20000000,
13:20:07:179,-0.0150,-0.0575,0.1319,0.1145,-0.0428,0.0249,213.9750,50.37562072,16.28185562,0.20000000,
13:20:07:221,-0.0150,-0.0575,0.1319,0.1145,-0.0428,0.0249,213.9750,50.37562072,16.28185562,0.20000000,
13:20:07:234,-0.0150,-0.0575,0.1319,0.0927,0.0212,0.0287,213.9750,50.37562072,16.28185562,0.20000000,
13:20:07:245,-0.0463,-0.0645,0.0709,0.0927,0.0212,0.0287,213.9750,50.37562072,16.28185562,0.20000000,
13:20:07:290,-0.0463,-0.0645,0.0709,0.0927,0.0212,0.0287,213.9750,50.37562072,16.28185562,0.20000000,
13:20:07:301,-0.0463,-0.0645,0.0709,0.1097,-0.0305,0.0593,213.9750,50.37562072,16.28185562,0.20000000,
13:20:07:314,-0.0720,-0.0720,-0.0138,0.1097,-0.0305,0.0593,213.9750,50.37562072,16.28185562,0.20000000,
13:20:07:357,-0.0720,-0.0720,-0.0138,0.1097,-0.0305,0.0593,213.9750,50.37562072,16.28185562,0.20000000,
13:20:07:365,-0.0720,-0.0720,-0.0138,0.1097,-0.0305,0.0593,214.9875,50.37562072,16.28185562,0.20000000,
13:20:07:368,-0.0720,-0.0720,-0.0138,0.1984,0.0967,0.0825,214.9875,50.37562072,16.28185562,0.20000000,
13:20:07:381,0.0406,-0.1461,0.2795,0.1984,0.0967,0.0825,214.9875,50.37562072,16.28185562,0.20000000,
13:20:07:425,0.0406,-0.1461,0.2795,0.1984,0.0967,0.0825,214.9875,50.37562072,16.28185562,0.20000000,
13:20:07:439,0.0406,-0.1461,0.2795,0.1626,0.1826,0.1565,214.9875,50.37562072,16.28185562,0.20000000,
13:20:07:450,0.0334,-0.1090,0.2103,0.1626,0.1826,0.1565,214.9875,50.37562072,16.28185562,0.20000000,
13:20:07:493,0.0334,-0.1090,0.2103,0.1626,0.1826,0.1565,214.9875,50.37562072,16.28185562,0.20000000,
13:20:07:504,0.0334,-0.1090,0.2103,-0.0148,0.2230,-0.0400,214.9875,50.37562072,16.28185562,0.20000000,
13:20:07:516,0.4179,0.3189,0.1250,-0.0148,0.2230,-0.0400,214.9875,50.37562072,16.28185562,0.20000000,
13:20:07:524,0.4179,0.3189,0.1250,-0.0148,0.2230,-0.0400,220.9950,50.37562072,16.28185562,0.20000000,
13:20:07:560,0.4179,0.3189,0.1250,-0.0148,0.2230,-0.0400,220.9950,50.37562072,16.28185562,0.20000000,
13:20:07:574,0.4179,0.3189,0.1250,0.1394,0.1521,-0.1987,220.9950,50.37562072,16.28185562,0.20000000,
13:20:07:584,0.5851,0.5239,0.3129,0.1394,0.1521,-0.1987,220.9950,50.37562072,16.28185562,0.20000000,
13:20:07:628,0.5851,0.5239,0.3129,0.1394,0.1521,-0.1987,220.9950,50.37562072,16.28185562,0.20000000,
13:20:07:641,0.5851,0.5239,0.3129,0.5751,0.0641,-0.4864,220.9950,50.37562072,16.28185562,0.20000000,
13:20:07:653,1.1361,0.3402,0.5494,0.5751,0.0641,-0.4864,220.9950,50.37562072,16.28185562,0.20000000,
13:20:07:685,1.1361,0.3402,0.5494,0.5751,0.0641,-0.4864,214.9875,50.37562072,16.28185562,0.20000000,
13:20:07:696,1.1361,0.3402,0.5494,0.5751,0.0641,-0.4864,214.9875,50.37562072,16.28185562,0.20000000,
13:20:07:708,1.1361,0.3402,0.5494,0.3876,0.2217,-0.4053,214.9875,50.37562072,16.28185562,0.20000000,
13:20:07:720,0.6017,0.0229,-0.1531,0.3876,0.2217,-0.4053,214.9875,50.37562072,16.28185562,0.20000000,
13:20:07:762,0.6017,0.0229,-0.1531,0.3876,0.2217,-0.4053,214.9875,50.37562072,16.28185562,0.20000000,
13:20:07:777,0.6017,0.0229,-0.1531,0.3322,0.3694,-0.2158,214.9875,50.37562072,16.28185562,0.20000000,
13:20:07:789,0.4200,-0.1936,0.0342,0.3322,0.3694,-0.2158,214.9875,50.37562072,16.28185562,0.20000000,
13:20:07:831,0.4200,-0.1936,0.0342,0.3322,0.3694,-0.2158,214.9875,50.37562072,16.28185562,0.20000000,
13:20:07:844,0.4200,-0.1936,0.0342,0.6051,0.1390,-0.0061,214.9875,50.37562072,16.28185562,0.20000000,
13:20:07:847,0.4200,-0.1936,0.0342,0.6051,0.1390,-0.0061,207.9675,50.37562072,16.28185562,0.20000000,
13:20:07:857,-0.1724,-0.6970,0.3180,0.6051,0.1390,-0.0061,207.9675,50.37562072,16.28185562,0.20000000,
13:20:07:898,-0.1724,-0.6970,0.3180,0.6051,0.1390,-0.0061,207.9675,50.37562072,16.28185562,0.20000000,
13:20:07:911,-0.1724,-0.6970,0.3180,0.6576,-0.4116,-0.0055,207.9675,50.37562072,16.28185562,0.20000000,
13:20:07:923,-0.7274,-0.9320,-0.2667,0.6576,-0.4116,-0.0055,207.9675,50.37562072,16.28185562,0.20000000,
13:20:07:966,-0.7274,-0.9320,-0.2667,0.6576,-0.4116,-0.0055,207.9675,50.37562072,16.28185562,0.20000000,
13:20:07:978,-0.7274,-0.9320,-0.2667,0.3859,-0.5250,-0.5092,207.9675,50.37559711,16.28178879,0.00000000,
13:20:07:991,-0.2577,-0.2442,-0.5014,0.3859,-0.5250,-0.5092,207.9675,50.37559711,16.28178879,0.00000000,
13:20:08:005,-0.2577,-0.2442,-0.5014,0.3859,-0.5250,-0.5092,203.9850,50.37559711,16.28178879,0.00000000,
13:20:08:034,-0.2577,-0.2442,-0.5014,0.3859,-0.5250,-0.5092,203.9850,50.37559711,16.28178879,0.00000000,
13:20:08:046,-0.2577,-0.2442,-0.5014,0.3320,-0.5101,-0.3378,203.9850,50.37559711,16.28178879,0.00000000,
13:20:08:060,-0.7251,-0.2301,-0.1750,0.3320,-0.5101,-0.3378,203.9850,50.37559711,16.28178879,0.00000000,
13:20:08:102,-0.7251,-0.2301,-0.1750,0.3320,-0.5101,-0.3378,203.9850,50.37559711,16.28178879,0.00000000,
13:20:08:115,-0.7251,-0.2301,-0.1750,0.3984,-0.1801,-0.2839,203.9850,50.37559711,16.28178879,0.00000000,
13:20:08:127,-0.4772,-0.3994,0.5700,0.3984,-0.1801,-0.2839,203.9850,50.37559711,16.28178879,0.00000000,
13:20:08:165,-0.4772,-0.3994,0.5700,0.3984,-0.1801,-0.2839,191.0250,50.37559711,16.28178879,0.00000000,
13:20:08:170,-0.4772,-0.3994,0.5700,0.3984,-0.1801,-0.2839,191.0250,50.37559711,16.28178879,0.00000000,
13:20:08:182,-0.4772,-0.3994,0.5700,0.1762,-0.0287,-0.2112,191.0250,50.37559711,16.28178879,0.00000000,
13:20:08:195,-0.2636,-0.2992,-0.1524,0.1762,-0.0287,-0.2112,191.0250,50.37559711,16.28178879,0.00000000,
13:20:08:237,-0.2636,-0.2992,-0.1524,0.1762,-0.0287,-0.2112,191.0250,50.37559711,16.28178879,0.00000000,
13:20:08:250,-0.2636,-0.2992,-0.1524,-0.1313,0.0147,-0.2329,191.0250,50.37559711,16.28178879,0.00000000,
13:20:08:263,-0.2668,-0.0229,-0.7001,-0.1313,0.0147,-0.2329,191.0250,50.37559711,16.28178879,0.00000000,
13:20:08:305,-0.2668,-0.0229,-0.7001,-0.1313,0.0147,-0.2329,191.0250,50.37559711,16.28178879,0.00000000,
13:20:08:318,-0.2668,-0.0229,-0.7001,-0.1765,0.1052,-0.1071,191.0250,50.37559711,16.28178879,0.00000000,
13:20:08:324,-0.2668,-0.0229,-0.7001,-0.1765,0.1052,-0.1071,191.9700,50.37559711,16.28178879,0.00000000,
13:20:08:331,-0.1946,-0.0027,-0.2570,-0.1765,0.1052,-0.1071,191.9700,50.37559711,16.28178879,0.00000000,
13:20:08:374,-0.1946,-0.0027,-0.2570,-0.1765,0.1052,-0.1071,191.9700,50.37559711,16.28178879,0.00000000,
13:20:08:387,-0.1946,-0.0027,-0.2570,-0.0324,0.0753,-0.0895,191.9700,50.37559711,16.28178879,0.00000000,
13:20:08:398,-0.0191,0.1190,0.1747,-0.0324,0.0753,-0.0895,191.9700,50.37559711,16.28178879,0.00000000,
13:20:08:442,-0.0191,0.1190,0.1747,-0.0324,0.0753,-0.0895,191.9700,50.37559711,16.28178879,0.00000000,
13:20:08:454,-0.0191,0.1190,0.1747,0.0470,0.0835,-0.0357,191.9700,50.37559711,16.28178879,0.00000000,
13:20:08:467,-0.0928,0.0925,0.2466,0.0470,0.0835,-0.0357,191.9700,50.37559711,16.28178879,0.00000000,
13:20:08:485,-0.0928,0.0925,0.2466,0.0470,0.0835,-0.0357,195.0075,50.37559711,16.28178879,0.00000000,
13:20:08:510,-0.0928,0.0925,0.2466,0.0470,0.0835,-0.0357,195.0075,50.37559711,16.28178879,0.00000000,
13:20:08:521,-0.0928,0.0925,0.2466,0.1280,0.0429,-0.0298,195.0075,50.37559711,16.28178879,0.00000000,
13:20:08:535,0.0401,0.0720,0.1405,0.1280,0.0429,-0.0298,195.0075,50.37559711,16.28178879,0.00000000,
13:20:08:577,0.0401,0.0720,0.1405,0.1280,0.0429,-0.0298,195.0075,50.37559711,16.28178879,0.00000000,
13:20:08:590,0.0401,0.0720,0.1405,0.0997,-0.0199,-0.0458,195.0075,50.37559711,16.28178879,0.00000000,
13:20:08:602,0.0674,0.1003,-0.1627,0.0997,-0.0199,-0.0458,195.0075,50.37559711,16.28178879,0.00000000,
13:20:08:644,0.0674,0.1003,-0.1627,0.0997,-0.0199,-0.0458,195.0075,50.37559711,16.28178879,0.00000000,
13:20:08:646,0.0674,0.1003,-0.1627,0.0997,-0.0199,-0.0458,196.0200,50.37559711,16.28178879,0.00000000,
13:20:08:657,0.0674,0.1003,-0.1627,0.0805,-0.0599,-0.0864,196.0200,50.37559711,16.28178879,0.00000000,
13:20:08:673,0.1306,0.1599,-0.1772,0.0805,-0.0599,-0.0864,196.0200,50.37559711,16.28178879,0.00000000,
13:20:08:713,0.1306,0.1599,-0.1772,0.0805,-0.0599,-0.0864,196.0200,50.37559711,16.28178879,0.00000000,
13:20:08:724,0.1306,0.1599,-0.1772,0.1057,-0.2075,-0.2065,196.0200,50.37559711,16.28178879,0.00000000,
13:20:08:740,0.3373,0.4346,-0.0603,0.1057,-0.2075,-0.2065,196.0200,50.37559711,16.28178879,0.00000000,
13:20:08:780,0.3373,0.4346,-0.0603,0.1057,-0.2075,-0.2065,196.0200,50.37559711,16.28178879,0.00000000,
13:20:08:793,0.3373,0.4346,-0.0603,0.2958,-0.5542,-0.2480,196.0200,50.37559711,16.28178879,0.00000000,
13:20:08:807,0.4437,0.6443,-0.0872,0.2958,-0.5542,-0.2480,196.0200,50.37559711,16.28178879,0.00000000,
13:20:08:847,0.4437,0.6443,-0.0872,0.2958,-0.5542,-0.2480,196.0200,50.37559711,16.28178879,0.00000000,
13:20:08:860,0.4437,0.6443,-0.0872,0.2498,-0.6680,-0.5621,196.0200,50.37559711,16.28178879,0.00000000,
13:20:08:874,0.9659,0.9386,-0.4783,0.2498,-0.6680,-0.5621,196.0200,50.37559711,16.28178879,0.00000000,
13:20:08:916,0.9659,0.9386,-0.4783,0.2498,-0.6680,-0.5621,196.0200,50.37559711,16.28178879,0.00000000,
13:20:08:927,0.9659,0.9386,-0.4783,0.0313,-0.6909,-0.7220,196.0200,50.37559711,16.28178879,0.00000000,
13:20:08:941,1.1838,0.8360,-0.7084,0.0313,-0.6909,-0.7220,196.0200,50.37559711,16.28178879,0.00000000,
13:20:08:964,1.1838,0.8360,-0.7084,0.0313,-0.6909,-0.7220,202.0275,50.37559711,16.28178879,0.00000000,
13:20:08:984,1.1838,0.8360,-0.7084,0.0313,-0.6909,-0.7220,202.0275,50.37559711,16.28178879,0.00000000,
13:20:08:995,1.1838,0.8360,-0.7084,-0.2392,-0.5059,-0.5492,202.0275,50.37560064,16.28181006,0.31000000,
13:20:09:007,0.3243,0.4996,-0.6290,-0.2392,-0.5059,-0.5492,202.0275,50.37560064,16.28181006,0.31000000,
13:20:09:051,0.3243,0.4996,-0.6290,-0.2392,-0.5059,-0.5492,202.0275,50.37560064,16.28181006,0.31000000,
13:20:09:065,0.3243,0.4996,-0.6290,-0.2705,-0.2083,-0.1003,202.0275,50.37560064,16.28181006,0.31000000,
13:20:09:075,-0.4596,0.1167,-0.4674,-0.2705,-0.2083,-0.1003,202.0275,50.37560064,16.28181006,0.31000000,
13:20:09:119,-0.4596,0.1167,-0.4674,-0.2705,-0.2083,-0.1003,202.0275,50.37560064,16.28181006,0.31000000,
13:20:09:124,-0.4596,0.1167,-0.4674,-0.2705,-0.2083,-0.1003,217.0125,50.37560064,16.28181006,0.31000000,
13:20:09:131,-0.4596,0.1167,-0.4674,-0.1533,-0.7643,0.2149,217.0125,50.37560064,16.28181006,0.31000000,
13:20:09:144,-0.5245,-0.2830,-0.4674,-0.1533,-0.7643,0.2149,217.0125,50.37560064,16.28181006,0.31000000,
13:20:09:188,-0.5245,-0.2830,-0.4674,-0.1533,-0.7643,0.2149,217.0125,50.37560064,16.28181006,0.31000000,
13:20:09:198,-0.5245,-0.2830,-0.4674,0.7483,-1.6701,0.6860,217.0125,50.37560064,16.28181006,0.31000000,
13:20:09:213,-1.6843,-1.4242,0.3596,0.7483,-1.6701,0.6860,217.0125,50.37560064,16.28181006,0.31000000,
13:20:09:255,-1.6843,-1.4242,0.3596,0.7483,-1.6701,0.6860,217.0125,50.37560064,16.28181006,0.31000000,
13:20:09:268,-1.6843,-1.4242,0.3596,0.5744,-1.2277,0.3928,217.0125,50.37560064,16.28181006,0.31000000,
13:20:09:279,-0.5094,-1.8521,0.7011,0.5744,-1.2277,0.3928,217.0125,50.37560064,16.28181006,0.31000000,
13:20:09:284,-0.5094,-1.8521,0.7011,0.5744,-1.2277,0.3928,218.0250,50.37560064,16.28181006,0.31000000,
13:20:09:323,-0.5094,-1.8521,0.7011,0.5744,-1.2277,0.3928,218.0250,50.37560064,16.28181006,0.31000000,
13:20:09:336,-0.5094,-1.8521,0.7011,-0.8381,-0.7129,0.1605,218.0250,50.37560064,16.28181006,0.31000000,
13:20:09:347,-0.4369,-1.0055,-1.2422,-0.8381,-0.7129,0.1605,218.0250,50.37560064,16.28181006,0.31000000,
13:20:09:391,-0.4369,-1.0055,-1.2422,-0.8381,-0.7129,0.1605,218.0250,50.37560064,16.28181006,0.31000000,
13:20:09:403,-0.4369,-1.0055,-1.2422,-1.2107,-0.0541,-0.4998,218.0250,50.37560064,16.28181006,0.31000000,
13:20:09:415,-0.0258,0.0014,0.3659,-1.2107,-0.0541,-0.4998,218.0250,50.37560064,16.28181006,0.31000000,
13:20:09:445,-0.0258,0.0014,0.3659,-1.2107,-0.0541,-0.4998,216.0000,50.37560064,16.28181006,0.31000000,
13:20:09:458,-0.0258,0.0014,0.3659,-1.2107,-0.0541,-0.4998,216.0000,50.37560064,16.28181006,0.31000000,
13:20:09:470,-0.0258,0.0014,0.3659,-0.0220,-0.0049,-0.7353,216.0000,50.37560064,16.28181006,0.31000000,
13:20:09:484,0.0140,0.2747,3.1895,-0.0220,-0.0049,-0.7353,216.0000,50.37560064,16.28181006,0.31000000,
13:20:09:526,0.0140,0.2747,3.1895,-0.0220,-0.0049,-0.7353,216.0000,50.37560064,16.28181006,0.31000000,
13:20:09:540,0.0140,0.2747,3.1895,-0.3540,0.1593,-0.5327,216.0000,50.37560064,16.28181006,0.31000000,
13:20:09:552,-0.9612,-0.0140,0.4979,-0.3540,0.1593,-0.5327,216.0000,50.37560064,16.28181006,0.31000000,
13:20:09:594,-0.9612,-0.0140,0.4979,-0.3540,0.1593,-0.5327,216.0000,50.37560064,16.28181006,0.31000000,
13:20:09:605,-0.9612,-0.0140,0.4979,-0.3540,0.1593,-0.5327,220.9950,50.37560064,16.28181006,0.31000000,
13:20:09:607,-0.9612,-0.0140,0.4979,-0.4594,0.2176,-0.3198,220.9950,50.37560064,16.28181006,0.31000000,
13:20:09:620,-0.5293,0.4182,-0.0206,-0.4594,0.2176,-0.3198,220.9950,50.37560064,16.28181006,0.31000000,
13:20:09:662,-0.5293,0.4182,-0.0206,-0.4594,0.2176,-0.3198,220.9950,50.37560064,16.28181006,0.31000000,
13:20:09:675,-0.5293,0.4182,-0.0206,-0.1170,0.0919,-0.0489,220.9950,50.37560064,16.28181006,0.31000000,
13:20:09:688,-0.5146,0.2748,0.9668,-0.1170,0.0919,-0.0489,220.9950,50.37560064,16.28181006,0.31000000,
13:20:09:729,-0.5146,0.2748,0.9668,-0.1170,0.0919,-0.0489,220.9950,50.37560064,16.28181006,0.31000000,
13:20:09:742,-0.5146,0.2748,0.9668,0.2199,-0.0811,0.1037,220.9950,50.37560064,16.28181006,0.31000000,
13:20:09:755,-0.1156,0.0026,0.8518,0.2199,-0.0811,0.1037,220.9950,50.37560064,16.28181006,0.31000000,
13:20:09:765,-0.1156,0.0026,0.8518,0.2199,-0.0811,0.1037,222.0075,50.37560064,16.28181006,0.31000000,
13:20:09:797,-0.1156,0.0026,0.8518,0.2199,-0.0811,0.1037,222.0075,50.37560064,16.28181006,0.31000000,
13:20:09:809,-0.1156,0.0026,0.8518,0.3549,0.0069,0.1723,222.0075,50.37560064,16.28181006,0.31000000,
13:20:09:823,0.1687,-0.2329,0.6482,0.3549,0.0069,0.1723,222.0075,50.37560064,16.28181006,0.31000000,
13:20:09:865,0.1687,-0.2329,0.6482,0.3549,0.0069,0.1723,222.0075,50.37560064,16.28181006,0.31000000,
13:20:09:877,0.1687,-0.2329,0.6482,0.2120,0.1100,0.0884,222.0075,50.37560064,16.28181006,0.31000000,
13:20:09:890,0.2952,-0.2058,-0.1586,0.2120,0.1100,0.0884,222.0075,50.37560064,16.28181006,0.31000000,
13:20:09:925,0.2952,-0.2058,-0.1586,0.2120,0.1100,0.0884,224.0325,50.37560064,16.28181006,0.31000000,
13:20:09:933,0.2952,-0.2058,-0.1586,0.2120,0.1100,0.0884,224.0325,50.37560064,16.28181006,0.31000000,
13:20:09:946,0.2952,-0.2058,-0.1586,0.1213,0.2422,0.1080,224.0325,50.37560064,16.28181006,0.31000000,
13:20:09:958,0.1425,-0.1891,-0.2086,0.1213,0.2422,0.1080,224.0325,50.37560064,16.28181006,0.31000000,
13:20:10:000,0.1425,-0.1891,-0.2086,0.1213,0.2422,0.1080,224.0325,50.37560064,16.28181006,0.31000000,
13:20:10:013,0.1425,-0.1891,-0.2086,0.2343,0.0600,0.1910,224.0325,50.37561571,16.28181428,0.33000001,
13:20:10:026,0.1222,0.0011,-0.0285,0.2343,0.0600,0.1910,224.0325,50.37561571,16.28181428,0.33000001,
13:20:10:068,0.1222,0.0011,-0.0285,0.2343,0.0600,0.1910,224.0325,50.37561571,16.28181428,0.33000001,
13:20:10:080,0.1222,0.0011,-0.0285,0.1257,0.1486,0.1037,224.0325,50.37561571,16.28181428,0.33000001,
13:20:10:085,0.1222,0.0011,-0.0285,0.1257,0.1486,0.1037,227.0025,50.37561571,16.28181428,0.33000001,
13:20:10:094,0.4337,-0.0236,-0.3188,0.1257,0.1486,0.1037,227.0025,50.37561571,16.28181428,0.33000001,
13:20:10:136,0.4337,-0.0236,-0.3188,0.1257,0.1486,0.1037,227.0025,50.37561571,16.28181428,0.33000001,
13:20:10:149,0.4337,-0.0236,-0.3188,0.0858,0.0982,0.0933,227.0025,50.37561571,16.28181428,0.33000001,
13:20:10:161,0.4600,0.0091,-0.2725,0.0858,0.0982,0.0933,227.0025,50.37561571,16.28181428,0.33000001,
13:20:10:203,0.4600,0.0091,-0.2725,0.0858,0.0982,0.0933,227.0025,50.37561571,16.28181428,0.33000001,
13:20:10:217,0.4600,0.0091,-0.2725,0.1000,0.0344,0.1443,227.0025,50.37561571,16.28181428,0.33000001,
13:20:10:229,0.0070,0.0748,-0.2260,0.1000,0.0344,0.1443,227.0025,50.37561571,16.28181428,0.33000001,
13:20:10:245,0.0070,0.0748,-0.2260,0.1000,0.0344,0.1443,228.0150,50.37561571,16.28181428,0.33000001,
13:20:10:272,0.0070,0.0748,-0.2260,0.1000,0.0344,0.1443,228.0150,50.37561571,16.28181428,0.33000001,
13:20:10:284,0.0070,0.0748,-0.2260,0.0441,0.0444,0.0805,228.0150,50.37561571,16.28181428,0.33000001,
13:20:10:297,0.3278,0.1259,-0.1964,0.0441,0.0444,0.0805,228.0150,50.37561571,16.28181428,0.33000001,
13:20:10:340,0.3278,0.1259,-0.1964,0.0441,0.0444,0.0805,228.0150,50.37561571,16.28181428,0.33000001,
13:20:10:355,0.3278,0.1259,-0.1964,0.0205,0.0185,0.0232,228.0150,50.37561571,16.28181428,0.33000001,
13:20:10:364,0.3336,0.0963,-0.2923,0.0205,0.0185,0.0232,228.0150,50.37561571,16.28181428,0.33000001,
13:20:10:407,0.3336,0.0963,-0.2923,0.0205,0.0185,0.0232,228.0150,50.37561571,16.28181428,0.33000001,
13:20:10:421,0.3336,0.0963,-0.2923,-0.0380,-0.0301,-0.0092,228.0150,50.37561571,16.28181428,0.33000001,
13:20:10:433,0.2456,0.1265,-0.3822,-0.0380,-0.0301,-0.0092,228.0150,50.37561571,16.28181428,0.33000001,
13:20:10:476,0.2456,0.1265,-0.3822,-0.0380,-0.0301,-0.0092,228.0150,50.37561571,16.28181428,0.33000001,
13:20:10:487,0.2456,0.1265,-0.3822,-0.0310,-0.0037,0.0250,228.0150,50.37561571,16.28181428,0.33000001,
13:20:10:501,0.0154,0.0922,-0.1099,-0.0310,-0.0037,0.0250,228.0150,50.37561571,16.28181428,0.33000001,
13:20:10:543,0.0154,0.0922,-0.1099,-0.0310,-0.0037,0.0250,228.0150,50.37561571,16.28181428,0.33000001,
13:20:10:556,0.0154,0.0922,-0.1099,-0.0079,-0.0406,0.0066,228.0150,50.37561571,16.28181428,0.33000001,
13:20:10:565,0.0154,0.0922,-0.1099,-0.0079,-0.0406,0.0066,225.9900,50.37561571,16.28181428,0.33000001,
13:20:10:569,0.0801,0.1249,-0.0006,-0.0079,-0.0406,0.0066,225.9900,50.37561571,16.28181428,0.33000001,
13:20:10:611,0.0801,0.1249,-0.0006,-0.0079,-0.0406,0.0066,225.9900,50.37561571,16.28181428,0.33000001,
13:20:10:623,0.0801,0.1249,-0.0006,0.0327,0.0061,0.0179,225.9900,50.37561571,16.28181428,0.33000001,
13:20:10:638,0.0248,0.0438,0.0753,0.0327,0.0061,0.0179,225.9900,50.37561571,16.28181428,0.33000001,
13:20:10:678,0.0248,0.0438,0.0753,0.0327,0.0061,0.0179,225.9900,50.37561571,16.28181428,0.33000001,
13:20:10:690,0.0248,0.0438,0.0753,-0.0399,0.0107,-0.0121,225.9900,50.37561571,16.28181428,0.33000001,
13:20:10:704,0.0793,0.0869,-0.0799,-0.0399,0.0107,-0.0121,225.9900,50.37561571,16.28181428,0.33000001,
13:20:10:747,0.0793,0.0869,-0.0799,-0.0399,0.0107,-0.0121,225.9900,50.37561571,16.28181428,0.33000001,
13:20:10:759,0.0793,0.0869,-0.0799,-0.0137,-0.0226,0.0108,225.9900,50.37561571,16.28181428,0.33000001,
13:20:10:772,0.0231,0.0319,-0.0700,-0.0137,-0.0226,0.0108,225.9900,50.37561571,16.28181428,0.33000001,
13:20:10:814,0.0231,0.0319,-0.0700,-0.0137,-0.0226,0.0108,225.9900,50.37561571,16.28181428,0.33000001,
13:20:10:827,0.0231,0.0319,-0.0700,-0.0325,-0.0018,0.0466,225.9900,50.37561571,16.28181428,0.33000001,
13:20:10:839,-0.0970,-0.0040,-0.0723,-0.0325,-0.0018,0.0466,225.9900,50.37561571,16.28181428,0.33000001,
13:20:10:882,-0.0970,-0.0040,-0.0723,-0.0325,-0.0018,0.0466,225.9900,50.37561571,16.28181428,0.33000001,
13:20:10:895,-0.0970,-0.0040,-0.0723,0.0208,0.0168,0.0464,225.9900,50.37561571,16.28181428,0.33000001,
13:20:10:907,0.0149,0.0042,0.0845,0.0208,0.0168,0.0464,225.9900,50.37561571,16.28181428,0.33000001,
13:20:10:951,0.0149,0.0042,0.0845,0.0208,0.0168,0.0464,225.9900,50.37561571,16.28181428,0.33000001,
13:20:10:962,0.0149,0.0042,0.0845,-0.0286,-0.0115,0.0127,225.9900,50.37561571,16.28181428,0.33000001,
13:20:10:975,0.0739,0.0939,-0.0857,-0.0286,-0.0115,0.0127,225.9900,50.37561571,16.28181428,0.33000001,
13:20:11:018,0.0739,0.0939,-0.0857,-0.0286,-0.0115,0.0127,225.9900,50.37560824,16.28179116,0.00000000,
13:20:11:031,0.0739,0.0939,-0.0857,-0.0044,-0.0160,0.0241,225.9900,50.37560824,16.28179116,0.00000000,
13:20:11:043,0.0356,0.0265,-0.0381,-0.0044,-0.0160,0.0241,225.9900,50.37560824,16.28179116,0.00000000,
13:20:11:045,0.0356,0.0265,-0.0381,-0.0044,-0.0160,0.0241,224.9775,50.37560824,16.28179116,0.00000000,
13:20:11:085,0.0356,0.0265,-0.0381,-0.0044,-0.0160,0.0241,224.9775,50.37560824,16.28179116,0.00000000,
13:20:11:098,0.0356,0.0265,-0.0381,-0.0249,-0.0066,-0.0197,224.9775,50.37560824,16.28179116,0.00000000,
13:20:11:111,0.1329,0.0421,0.0082,-0.0249,-0.0066,-0.0197,224.9775,50.37560824,16.28179116,0.00000000,
13:20:11:153,0.1329,0.0421,0.0082,-0.0249,-0.0066,-0.0197,224.9775,50.37560824,16.28179116,0.00000000,
13:20:11:165,0.1329,0.0421,0.0082,-0.0055,-0.0037,-0.0052,224.9775,50.37560824,16.28179116,0.00000000,
13:20:11:179,0.0191,0.0413,-0.0040,-0.0055,-0.0037,-0.0052,224.9775,50.37560824,16.28179116,0.00000000,
13:20:11:221,0.0191,0.0413,-0.0040,-0.0055,-0.0037,-0.0052,224.9775,50.37560824,16.28179116,0.00000000,
13:20:11:234,0.0191,0.0413,-0.0040,-0.0111,-0.0199,0.0194,224.9775,50.37560824,16.28179116,0.00000000,
13:20:11:246,-0.1051,-0.0248,0.0322,-0.0111,-0.0199,0.0194,224.9775,50.37560824,16.28179116,0.00000000,
13:20:11:289,-0.1051,-0.0248,0.0322,-0.0111,-0.0199,0.0194,224.9775,50.37560824,16.28179116,0.00000000,
13:20:11:303,-0.1051,-0.0248,0.0322,0.0090,-0.0192,0.0516,224.9775,50.37560824,16.28179116,0.00000000,
13:20:11:315,-0.1199,-0.0095,-0.0194,0.0090,-0.0192,0.0516,224.9775,50.37560824,16.28179116,0.00000000,
13:20:11:356,-0.1199,-0.0095,-0.0194,0.0090,-0.0192,0.0516,224.9775,50.37560824,16.28179116,0.00000000,
13:20:11:371,-0.1199,-0.0095,-0.0194,0.0209,-0.0082,0.0089,224.9775,50.37560824,16.28179116,0.00000000,
13:20:11:382,0.1063,0.0112,0.1210,0.0209,-0.0082,0.0089,224.9775,50.37560824,16.28179116,0.00000000,
13:20:11:425,0.1063,0.0112,0.1210,0.0209,-0.0082,0.0089,224.9775,50.37560824,16.28179116,0.00000000,
13:20:11:436,0.1063,0.0112,0.1210,-0.0095,-0.0180,0.0185,224.9775,50.37560824,16.28179116,0.00000000,
13:20:11:450,0.0136,0.0105,-0.1625,-0.0095,-0.0180,0.0185,224.9775,50.37560824,16.28179116,0.00000000,
13:20:11:492,0.0136,0.0105,-0.1625,-0.0095,-0.0180,0.0185,224.9775,50.37560824,16.28179116,0.00000000,
13:20:11:505,0.0136,0.0105,-0.1625,-0.0086,-0.0257,0.0229,224.9775,50.37560824,16.28179116,0.00000000,
13:20:11:517,-0.0039,0.0071,-0.0152,-0.0086,-0.0257,0.0229,224.9775,50.37560824,16.28179116,0.00000000,
13:20:11:560,-0.0039,0.0071,-0.0152,-0.0086,-0.0257,0.0229,224.9775,50.37560824,16.28179116,0.00000000,
13:20:11:573,-0.0039,0.0071,-0.0152,-0.0124,-0.0249,0.0046,224.9775,50.37560824,16.28179116,0.00000000,
13:20:11:585,0.0279,0.0059,-0.0419,-0.0124,-0.0249,0.0046,224.9775,50.37560824,16.28179116,0.00000000,
13:20:11:628,0.0279,0.0059,-0.0419,-0.0124,-0.0249,0.0046,224.9775,50.37560824,16.28179116,0.00000000,
13:20:11:640,0.0279,0.0059,-0.0419,-0.0168,-0.0353,0.0229,224.9775,50.37560824,16.28179116,0.00000000,
13:20:11:653,-0.0332,0.0075,-0.0211,-0.0168,-0.0353,0.0229,224.9775,50.37560824,16.28179116,0.00000000,
13:20:11:696,-0.0332,0.0075,-0.0211,-0.0168,-0.0353,0.0229,224.9775,50.37560824,16.28179116,0.00000000,
13:20:11:708,-0.0332,0.0075,-0.0211,0.0034,-0.0272,0.0069,224.9775,50.37560824,16.28179116,0.00000000,
13:20:11:721,0.0379,0.0152,0.0946,0.0034,-0.0272,0.0069,224.9775,50.37560824,16.28179116,0.00000000,
13:20:11:763,0.0379,0.0152,0.0946,0.0034,-0.0272,0.0069,224.9775,50.37560824,16.28179116,0.00000000,
13:20:11:776,0.0379,0.0152,0.0946,0.0257,0.0127,-0.0293,224.9775,50.37560824,16.28179116,0.00000000,
13:20:11:788,0.1421,0.0576,0.1270,0.0257,0.0127,-0.0293,224.9775,50.37560824,16.28179116,0.00000000,
13:20:11:831,0.1421,0.0576,0.1270,0.0257,0.0127,-0.0293,224.9775,50.37560824,16.28179116,0.00000000,
13:20:11:843,0.1421,0.0576,0.1270,0.0147,0.0406,-0.0018,224.9775,50.37560824,16.28179116,0.00000000,
13:20:11:857,-0.0470,-0.0164,0.0520,0.0147,0.0406,-0.0018,224.9775,50.37560824,16.28179116,0.00000000,
13:20:11:899,-0.0470,-0.0164,0.0520,0.0147,0.0406,-0.0018,224.9775,50.37560824,16.28179116,0.00000000,
13:20:11:912,-0.0470,-0.0164,0.0520,0.0234,0.0405,0.0032,224.9775,50.37560824,16.28179116,0.00000000,
13:20:11:924,-0.0505,-0.0626,-0.0028,0.0234,0.0405,0.0032,224.9775,50.37560824,16.28179116,0.00000000,
13:20:11:968,-0.0505,-0.0626,-0.0028,0.0234,0.0405,0.0032,224.9775,50.37560824,16.28179116,0.00000000,
13:20:11:979,-0.0505,-0.0626,-0.0028,0.0333,0.0505,0.0151,224.9775,50.37560824,16.28179116,0.00000000,
13:20:11:992,-0.0245,-0.0513,0.0718,0.0333,0.0505,0.0151,224.9775,50.37560824,16.28179116,0.00000000,
13:20:12:035,-0.0245,-0.0513,0.0718,0.0333,0.0505,0.0151,224.9775,50.37560824,16.28179116,0.00000000,
13:20:12:047,-0.0245,-0.0513,0.0718,0.1063,0.1515,0.0394,224.9775,50.37560824,16.28179116,0.00000000,
13:20:12:060,-0.1578,-0.0801,0.3782,0.1063,0.1515,0.0394,224.9775,50.37560824,16.28179116,0.00000000,
13:20:12:103,-0.1578,-0.0801,0.3782,0.1063,0.1515,0.0394,224.9775,50.37560824,16.28179116,0.00000000,
13:20:12:115,-0.1578,-0.0801,0.3782,0.1646,0.3958,-0.1005,224.9775,50.37560824,16.28179116,0.00000000,
13:20:12:127,0.1575,-0.0426,0.7246,0.1646,0.3958,-0.1005,224.9775,50.37560824,16.28179116,0.00000000,
13:20:12:165,0.1575,-0.0426,0.7246,0.1646,0.3958,-0.1005,228.0150,50.37560824,16.28179116,0.00000000,
13:20:12:171,0.1575,-0.0426,0.7246,0.1646,0.3958,-0.1005,228.0150,50.37560824,16.28179116,0.00000000,
13:20:12:183,0.1575,-0.0426,0.7246,0.2674,0.3966,-0.3277,228.0150,50.37560824,16.28179116,0.00000000,
13:20:12:196,0.1845,-0.0710,0.7819,0.2674,0.3966,-0.3277,228.0150,50.37560824,16.28179116,0.00000000,
13:20:12:237,0.1845,-0.0710,0.7819,0.2674,0.3966,-0.3277,228.0150,50.37560824,16.28179116,0.00000000,
13:20:12:252,0.1845,-0.0710,0.7819,0.3416,0.1842,-0.5478,228.0150,50.37560824,16.28179116,0.00000000,
13:20:12:264,0.0164,-0.2148,0.5663,0.3416,0.1842,-0.5478,228.0150,50.37560824,16.28179116,0.00000000,
13:20:12:306,0.0164,-0.2148,0.5663,0.3416,0.1842,-0.5478,228.0150,50.37560824,16.28179116,0.00000000,
13:20:12:318,0.0164,-0.2148,0.5663,0.3503,-0.3714,-0.5747,228.0150,50.37560824,16.28179116,0.00000000,
13:20:12:326,0.0164,-0.2148,0.5663,0.3503,-0.3714,-0.5747,230.9850,50.37560824,16.28179116,0.00000000,
13:20:12:331,-0.2255,-0.3919,-0.3579,0.3503,-0.3714,-0.5747,230.9850,50.37560824,16.28179116,0.00000000,
13:20:12:374,-0.2255,-0.3919,-0.3579,0.3503,-0.3714,-0.5747,230.9850,50.37560824,16.28179116,0.00000000,
13:20:12:387,-0.2255,-0.3919,-0.3579,0.5246,-0.3598,-0.4102,230.9850,50.37560824,16.28179116,0.00000000,
13:20:12:399,0.2693,-0.3920,-0.2635,0.5246,-0.3598,-0.4102,230.9850,50.37560824,16.28179116,0.00000000,
13:20:12:441,0.2693,-0.3920,-0.2635,0.5246,-0.3598,-0.4102,230.9850,50.37560824,16.28179116,0.00000000,
13:20:12:454,0.2693,-0.3920,-0.2635,1.0689,-0.1880,-0.1034,230.9850,50.37560824,16.28179116,0.00000000,
13:20:12:468,0.3189,-0.5769,0.4141,1.0689,-0.1880,-0.1034,230.9850,50.37560824,16.28179116,0.00000000,
13:20:12:485,0.3189,-0.5769,0.4141,1.0689,-0.1880,-0.1034,224.0325,50.37560824,16.28179116,0.00000000,
13:20:12:509,0.3189,-0.5769,0.4141,1.0689,-0.1880,-0.1034,224.0325,50.37560824,16.28179116,0.00000000,
13:20:12:522,0.3189,-0.5769,0.4141,1.0837,0.2928,0.0698,224.0325,50.37560824,16.28179116,0.00000000,
13:20:12:535,0.7087,-0.5155,0.3371,1.0837,0.2928,0.0698,224.0325,50.37560824,16.28179116,0.00000000,
13:20:12:577,0.7087,-0.5155,0.3371,1.0837,0.2928,0.0698,224.0325,50.37560824,16.28179116,0.00000000,
13:20:12:590,0.7087,-0.5155,0.3371,0.5275,0.3913,0.0027,224.0325,50.37560824,16.28179116,0.00000000,
13:20:12:603,0.6450,-0.0552,-0.8665,0.5275,0.3913,0.0027,224.0325,50.37560824,16.28179116,0.00000000,
13:20:12:644,0.6450,-0.0552,-0.8665,0.5275,0.3913,0.0027,224.0325,50.37560824,16.28179116,0.00000000,
13:20:12:658,0.6450,-0.0552,-0.8665,0.0864,0.2653,0.0564,224.0325,50.37560824,16.28179116,0.00000000,
13:20:12:670,0.1458,0.0963,-1.0700,0.0864,0.2653,0.0564,224.0325,50.37560824,16.28179116,0.00000000,
13:20:12:714,0.1458,0.0963,-1.0700,0.0864,0.2653,0.0564,224.0325,50.37560824,16.28179116,0.00000000,
13:20:12:724,0.1458,0.0963,-1.0700,-0.0066,0.1008,-0.1132,224.0325,50.37560824,16.28179116,0.00000000,
13:20:12:739,0.0048,0.2740,-0.4990,-0.0066,0.1008,-0.1132,224.0325,50.37560824,16.28179116,0.00000000,
13:20:12:780,0.0048,0.2740,-0.4990,-0.0066,0.1008,-0.1132,224.0325,50.37560824,16.28179116,0.00000000,
13:20:12:793,0.0048,0.2740,-0.4990,-0.3677,0.1526,-0.2434,224.0325,50.37560824,16.28179116,0.00000000,
13:20:12:806,0.0048,0.2740,-0.4990,-0.3677,0.1526,-0.2434,228.0150,50.37560824,16.28179116,0.00000000,
13:20:12:809,0.0569,0.3766,-0.7548,-0.3677,0.1526,-0.2434,228.0150,50.37560824,16.28179116,0.00000000,
13:20:12:848,0.0569,0.3766,-0.7548,-0.3677,0.1526,-0.2434,228.0150,50.37560824,16.28179116,0.00000000,
13:20:12:861,0.0569,0.3766,-0.7548,-0.2051,0.1538,-0.1984,228.0150,50.37560824,16.28179116,0.00000000,
13:20:12:873,-0.0118,0.1800,-0.1069,-0.2051,0.1538,-0.1984,228.0150,50.37560824,16.28179116,0.00000000,
13:20:12:916,-0.0118,0.1800,-0.1069,-0.2051,0.1538,-0.1984,228.0150,50.37560824,16.28179116,0.00000000,
13:20:12:928,-0.0118,0.1800,-0.1069,0.2347,-0.0273,-0.1045,228.0150,50.37560824,16.28179116,0.00000000,
13:20:12:941,-0.2188,-0.0160,0.5160,0.2347,-0.0273,-0.1045,228.0150,50.37560824,16.28179116,0.00000000,
13:20:12:973,-0.2188,-0.0160,0.5160,0.2347,-0.0273,-0.1045,233.0100,50.37560824,16.28179116,0.00000000,
13:20:12:983,-0.2188,-0.0160,0.5160,0.2347,-0.0273,-0.1045,233.0100,50.37560799,16.28177177,0.00000000,
13:20:12:995,-0.2188,-0.0160,0.5160,0.2285,0.0678,-0.1103,233.0100,50.37560799,16.28177177,0.00000000,
13:20:13:008,-0.0984,-0.0291,0.3903,0.2285,0.0678,-0.1103,233.0100,50.37560799,16.28177177,0.00000000,
13:20:13:052,-0.0984,-0.0291,0.3903,0.2285,0.0678,-0.1103,233.0100,50.37560799,16.28177177,0.00000000,
13:20:13:064,-0.0984,-0.0291,0.3903,0.2425,-0.0345,0.0061,233.0100,50.37560799,16.28177177,0.00000000,
13:20:13:076,-0.2977,-0.1147,-0.0232,0.2425,-0.0345,0.0061,233.0100,50.37560799,16.28177177,0.00000000,
13:20:13:119,-0.2977,-0.1147,-0.0232,0.2425,-0.0345,0.0061,233.0100,50.37560799,16.28177177,0.00000000,
13:20:13:125,-0.2977,-0.1147,-0.0232,0.2425,-0.0345,0.0061,234.0225,50.37560799,16.28177177,0.00000000,
13:20:13:132,-0.2977,-0.1147,-0.0232,0.2928,0.0142,0.0064,234.0225,50.37560799,16.28177177,0.00000000,
13:20:13:145,-0.2236,-0.1549,0.2642,0.2928,0.0142,0.0064,234.0225,50.37560799,16.28177177,0.00000000,
13:20:13:188,-0.2236,-0.1549,0.2642,0.2928,0.0142,0.0064,234.0225,50.37560799,16.28177177,0.00000000,
13:20:13:201,-0.2236,-0.1549,0.2642,0.1674,0.0095,-0.0382,234.0225,50.37560799,16.28177177,0.00000000,
13:20:13:214,-0.0284,0.0310,-0.1472,0.1674,0.0095,-0.0382,234.0225,50.37560799,16.28177177,0.00000000,
13:20:13:255,-0.0284,0.0310,-0.1472,0.1674,0.0095,-0.0382,234.0225,50.37560799,16.28177177,0.00000000,
13:20:13:269,-0.0284,0.0310,-0.1472,0.1611,0.0588,-0.0017,234.0225,50.37560799,16.28177177,0.00000000,
13:20:13:281,-0.1217,-0.0304,0.1356,0.1611,0.0588,-0.0017,234.0225,50.37560799,16.28177177,0.00000000,
13:20:13:323,-0.1217,-0.0304,0.1356,0.1611,0.0588,-0.0017,234.0225,50.37560799,16.28177177,0.00000000,
13:20:13:337,-0.1217,-0.0304,0.1356,0.3254,0.0009,0.0750,234.0225,50.37560799,16.28177177,0.00000000,
13:20:13:350,-0.2163,0.0023,0.2233,0.3254,0.0009,0.0750,234.0225,50.37560799,16.28177177,0.00000000,
13:20:13:391,-0.2163,0.0023,0.2233,0.3254,0.0009,0.0750,234.0225,50.37560799,16.28177177,0.00000000,
13:20:13:404,-0.2163,0.0023,0.2233,0.1854,0.0023,0.1150,234.0225,50.37560799,16.28177177,0.00000000,
13:20:13:421,-0.2157,-0.0856,0.1312,0.1854,0.0023,0.1150,234.0225,50.37560799,16.28177177,0.00000000,
13:20:13:444,-0.2157,-0.0856,0.1312,0.1854,0.0023,0.1150,233.0100,50.37560799,16.28177177,0.00000000,
13:20:13:460,-0.2157,-0.0856,0.1312,0.1854,0.0023,0.1150,233.0100,50.37560799,16.28177177,0.00000000,
13:20:13:470,-0.2157,-0.0856,0.1312,-0.0173,0.1510,-0.0270,233.0100,50.37560799,16.28177177,0.00000000,
13:20:13:484,0.1284,0.1562,-0.3799,-0.0173,0.1510,-0.0270,233.0100,50.37560799,16.28177177,0.00000000,
13:20:13:527,0.1284,0.1562,-0.3799,-0.0173,0.1510,-0.0270,233.0100,50.37560799,16.28177177,0.00000000,
13:20:13:539,0.1284,0.1562,-0.3799,-0.1865,0.1451,0.0075,233.0100,50.37560799,16.28177177,0.00000000,
13:20:13:553,-0.0497,0.0968,-0.3376,-0.1865,0.1451,0.0075,233.0100,50.37560799,16.28177177,0.00000000,
13:20:13:595,-0.0497,0.0968,-0.3376,-0.1865,0.1451,0.0075,233.0100,50.37560799,16.28177177,0.00000000,
13:20:13:606,-0.0497,0.0968,-0.3376,-0.1865,0.1451,0.0075,234.9675,50.37560799,16.28177177,0.00000000,
13:20:13:609,-0.0497,0.0968,-0.3376,-0.1385,0.0849,-0.1249,234.9675,50.37560799,16.28177177,0.00000000,
13:20:13:621,0.1691,0.2532,-0.2265,-0.1385,0.0849,-0.1249,234.9675,50.37560799,16.28177177,0.00000000,
13:20:13:662,0.1691,0.2532,-0.2265,-0.1385,0.0849,-0.1249,234.9675,50.37560799,16.28177177,0.00000000,
13:20:13:675,0.1691,0.2532,-0.2265,0.0171,-0.0124,-0.1405,234.9675,50.37560799,16.28177177,0.00000000,
13:20:13:687,0.0264,0.2907,0.2916,0.0171,-0.0124,-0.1405,234.9675,50.37560799,16.28177177,0.00000000,
13:20:13:729,0.0264,0.2907,0.2916,0.0171,-0.0124,-0.1405,234.9675,50.37560799,16.28177177,0.00000000,
13:20:13:743,0.0264,0.2907,0.2916,-0.3231,-0.0971,-0.5006,234.9675,50.37560799,16.28177177,0.00000000,
13:20:13:755,0.6222,0.6836,-0.3997,-0.3231,-0.0971,-0.5006,234.9675,50.37560799,16.28177177,0.00000000,
13:20:13:768,0.6222,0.6836,-0.3997,-0.3231,-0.0971,-0.5006,240.0300,50.37560799,16.28177177,0.00000000,
13:20:13:797,0.6222,0.6836,-0.3997,-0.3231,-0.0971,-0.5006,240.0300,50.37560799,16.28177177,0.00000000,
13:20:13:809,0.6222,0.6836,-0.3997,0.0524,-0.3395,-0.7630,240.0300,50.37560799,16.28177177,0.00000000,
13:20:13:823,0.4068,0.9338,0.4474,0.0524,-0.3395,-0.7630,240.0300,50.37560799,16.28177177,0.00000000,
13:20:13:865,0.4068,0.9338,0.4474,0.0524,-0.3395,-0.7630,240.0300,50.37560799,16.28177177,0.00000000,
13:20:13:877,0.4068,0.9338,0.4474,-0.3890,-0.3847,-1.2388,240.0300,50.37560799,16.28177177,0.00000000,
13:20:13:890,0.2198,1.1898,0.1718,-0.3890,-0.3847,-1.2388,240.0300,50.37560799,16.28177177,0.00000000,
13:20:13:926,0.2198,1.1898,0.1718,-0.3890,-0.3847,-1.2388,250.0200,50.37560799,16.28177177,0.00000000,
13:20:13:933,0.2198,1.1898,0.1718,-0.3890,-0.3847,-1.2388,250.0200,50.37560799,16.28177177,0.00000000,
13:20:13:946,0.2198,1.1898,0.1718,0.1095,-0.4472,-1.4216,250.0200,50.37560799,16.28177177,0.00000000,
13:20:13:958,0.6609,0.6549,1.2575,0.1095,-0.4472,-1.4216,250.0200,50.37560799,16.28177177,0.00000000,
13:20:14:000,0.6609,0.6549,1.2575,0.1095,-0.4472,-1.4216,250.0200,50.37560799,16.28177177,0.00000000,
13:20:14:013,0.6609,0.6549,1.2575,-0.0176,-0.2758,-0.5351,250.0200,50.37560799,16.28177177,0.00000000,
13:20:14:027,-1.2540,-0.5894,1.3972,-0.0176,-0.2758,-0.5351,250.0200,50.37560799,16.28177177,0.00000000,
13:20:14:069,-1.2540,-0.5894,1.3972,-0.0176,-0.2758,-0.5351,250.0200,50.37560799,16.28177177,0.00000000,
13:20:14:081,-1.2540,-0.5894,1.3972,0.0315,0.5632,0.3998,250.0200,50.37560799,16.28177177,0.00000000,
13:20:14:087,-1.2540,-0.5894,1.3972,0.0315,0.5632,0.3998,260.0100,50.37560799,16.28177177,0.00000000,
13:20:14:094,-0.9126,-0.2308,1.4368,0.0315,0.5632,0.3998,260.0100,50.37560799,16.28177177,0.00000000,
13:20:14:137,-0.9126,-0.2308,1.4368,0.0315,0.5632,0.3998,260.0100,50.37560799,16.28177177,0.00000000,
13:20:14:150,-0.9126,-0.2308,1.4368,1.0325,0.0040,1.1820,260.0100,50.37560799,16.28177177,0.00000000,
13:20:14:162,-2.8752,-0.9625,2.5687,1.0325,0.0040,1.1820,260.0100,50.37560799,16.28177177,0.00000000,
13:20:14:204,-2.8752,-0.9625,2.5687,1.0325,0.0040,1.1820,260.0100,50.37560799,16.28177177,0.00000000,
13:20:14:217,-2.8752,-0.9625,2.5687,0.6828,0.4982,0.7309,260.0100,50.37560799,16.28177177,0.00000000,
13:20:14:230,0.9773,-0.2225,0.6620,0.6828,0.4982,0.7309,260.0100,50.37560799,16.28177177,0.00000000,
13:20:14:245,0.9773,-0.2225,0.6620,0.6828,0.4982,0.7309,266.0175,50.37560799,16.28177177,0.00000000,
13:20:14:272,0.9773,-0.2225,0.6620,0.6828,0.4982,0.7309,266.0175,50.37560799,16.28177177,0.00000000,
13:20:14:284,0.9773,-0.2225,0.6620,0.6278,0.5102,0.5516,266.0175,50.37560799,16.28177177,0.00000000,
13:20:14:299,0.3636,-0.5923,-0.2625,0.6278,0.5102,0.5516,266.0175,50.37560799,16.28177177,0.00000000,
13:20:14:340,0.3636,-0.5923,-0.2625,0.6278,0.5102,0.5516,266.0175,50.37560799,16.28177177,0.00000000,
13:20:14:353,0.3636,-0.5923,-0.2625,1.0157,0.4059,0.3007,266.0175,50.37560799,16.28177177,0.00000000,
13:20:14:365,0.7384,-1.4513,0.5281,1.0157,0.4059,0.3007,266.0175,50.37560799,16.28177177,0.00000000,
13:20:14:407,0.7384,-1.4513,0.5281,1.0157,0.4059,0.3007,274.9950,50.37560799,16.28177177,0.00000000,
13:20:14:409,0.7384,-1.4513,0.5281,1.0157,0.4059,0.3007,274.9950,50.37560799,16.28177177,0.00000000,
13:20:14:421,0.7384,-1.4513,0.5281,0.7489,1.1941,0.3917,274.9950,50.37560799,16.28177177,0.00000000,
13:20:14:433,0.5759,-1.4985,-0.1667,0.7489,1.1941,0.3917,274.9950,50.37560799,16.28177177,0.00000000,
13:20:14:476,0.5759,-1.4985,-0.1667,0.7489,1.1941,0.3917,274.9950,50.37560799,16.28177177,0.00000000,
13:20:14:489,0.5759,-1.4985,-0.1667,1.0081,0.8234,0.1451,274.9950,50.37560799,16.28177177,0.00000000,
13:20:14:501,0.6263,-1.1632,-0.1940,1.0081,0.8234,0.1451,274.9950,50.37560799,16.28177177,0.00000000,
13:20:14:543,0.6263,-1.1632,-0.1940,1.0081,0.8234,0.1451,274.9950,50.37560799,16.28177177,0.00000000,
13:20:14:555,0.6263,-1.1632,-0.1940,1.3696,0.6883,0.2576,274.9950,50.37560799,16.28177177,0.00000000,
13:20:14:567,0.6263,-1.1632,-0.1940,1.3696,0.6883,0.2576,284.9850,50.37560799,16.28177177,0.00000000,
13:20:14:569,0.1923,-0.8173,0.3548,1.3696,0.6883,0.2576,284.9850,50.37560799,16.28177177,0.00000000,
13:20:14:611,0.1923,-0.8173,0.3548,1.3696,0.6883,0.2576,284.9850,50.37560799,16.28177177,0.00000000,
13:20:14:624,0.1923,-0.8173,0.3548,1.5753,0.1665,0.1910,284.9850,50.37560799,16.28177177,0.00000000,
13:20:14:636,0.4629,-0.2960,0.0078,1.5753,0.1665,0.1910,284.9850,50.37560799,16.28177177,0.00000000,
13:20:14:678,0.4629,-0.2960,0.0078,1.5753,0.1665,0.1910,284.9850,50.37560799,16.28177177,0.00000000,
13:20:14:692,0.4629,-0.2960,0.0078,1.2113,0.3761,0.2634,284.9850,50.37560799,16.28177177,0.00000000,
13:20:14:704,-0.2391,-0.4424,-0.4199,1.2113,0.3761,0.2634,284.9850,50.37560799,16.28177177,0.00000000,
13:20:14:726,-0.2391,-0.4424,-0.4199,1.2113,0.3761,0.2634,266.0175,50.37560799,16.28177177,0.00000000,
13:20:14:748,-0.2391,-0.4424,-0.4199,1.2113,0.3761,0.2634,266.0175,50.37560799,16.28177177,0.00000000,
13:20:14:759,-0.2391,-0.4424,-0.4199,1.0996,0.0461,0.3438,266.0175,50.37560799,16.28177177,0.00000000,
13:20:14:772,0.0900,-0.3405,-0.3717,1.0996,0.0461,0.3438,266.0175,50.37560799,16.28177177,0.00000000,
13:20:14:814,0.0900,-0.3405,-0.3717,1.0996,0.0461,0.3438,266.0175,50.37560799,16.28177177,0.00000000,
13:20:14:827,0.0900,-0.3405,-0.3717,0.7033,-0.0785,0.2680,266.0175,50.37560799,16.28177177,0.00000000,
13:20:14:839,-0.2539,-0.5996,-0.5781,0.7033,-0.0785,0.2680,266.0175,50.37560799,16.28177177,0.00000000,
13:20:14:882,-0.2539,-0.5996,-0.5781,0.7033,-0.0785,0.2680,266.0175,50.37560799,16.28177177,0.00000000,
13:20:14:885,-0.2539,-0.5996,-0.5781,0.7033,-0.0785,0.2680,241.9875,50.37560799,16.28177177,0.00000000,
13:20:14:895,-0.2539,-0.5996,-0.5781,0.7008,-0.1837,0.1929,241.9875,50.37560799,16.28177177,0.00000000,
13:20:14:908,0.5334,-0.5096,0.0406,0.7008,-0.1837,0.1929,241.9875,50.37560799,16.28177177,0.00000000,
13:20:14:951,0.5334,-0.5096,0.0406,0.7008,-0.1837,0.1929,241.9875,50.37560799,16.28177177,0.00000000,
13:20:14:964,0.5334,-0.5096,0.0406,0.5689,0.0171,0.1332,241.9875,50.37560799,16.28177177,0.00000000,
13:20:14:977,0.2062,-0.9891,0.2301,0.5689,0.0171,0.1332,241.9875,50.37560799,16.28177177,0.00000000,
13:20:15:018,0.2062,-0.9891,0.2301,0.5689,0.0171,0.1332,241.9875,50.37561744,16.28178611,0.22000000,
13:20:15:030,0.2062,-0.9891,0.2301,0.3839,0.1067,0.1023,241.9875,50.37561744,16.28178611,0.22000000,
13:20:15:043,0.4648,-0.8991,-0.4085,0.3839,0.1067,0.1023,241.9875,50.37561744,16.28178611,0.22000000,
13:20:15:048,0.4648,-0.8991,-0.4085,0.3839,0.1067,0.1023,224.9775,50.37561744,16.28178611,0.22000000,
13:20:15:085,0.4648,-0.8991,-0.4085,0.3839,0.1067,0.1023,224.9775,50.37561744,16.28178611,0.22000000,
13:20:15:098,0.4648,-0.8991,-0.4085,0.3303,0.0044,0.1126,224.9775,50.37561744,16.28178611,0.22000000,
13:20:15:111,-0.0405,-0.6307,-0.5058,0.3303,0.0044,0.1126,224.9775,50.37561744,16.28178611,0.22000000,
13:20:15:154,-0.0405,-0.6307,-0.5058,0.3303,0.0044,0.1126,224.9775,50.37561744,16.28178611,0.22000000,
13:20:15:165,-0.0405,-0.6307,-0.5058,0.1640,0.0182,0.0228,224.9775,50.37561744,16.28178611,0.22000000,
13:20:15:179,0.2169,-0.2991,-0.6189,0.1640,0.0182,0.0228,224.9775,50.37561744,16.28178611,0.22000000,
13:20:15:206,0.2169,-0.2991,-0.6189,0.1640,0.0182,0.0228,218.9700,50.37561744,16.28178611,0.22000000,
13:20:15:223,0.2169,-0.2991,-0.6189,0.1640,0.0182,0.0228,218.9700,50.37561744,16.28178611,0.22000000,
13:20:15:234,0.2169,-0.2991,-0.6189,0.0814,-0.0176,0.0600,218.9700,50.37561744,16.28178611,0.22000000,
13:20:15:246,-0.2218,-0.1904,-0.6238,0.0814,-0.0176,0.0600,218.9700,50.37561744,16.28178611,0.22000000,
13:20:15:291,-0.2218,-0.1904,-0.6238,0.0814,-0.0176,0.0600,218.9700,50.37561744,16.28178611,0.22000000,
13:20:15:303,-0.2218,-0.1904,-0.6238,-0.0336,0.0736,0.0238,218.9700,50.37561744,16.28178611,0.22000000,
13:20:15:314,-0.0769,0.0283,-0.5164,-0.0336,0.0736,0.0238,218.9700,50.37561744,16.28178611,0.22000000,
13:20:15:356,-0.0769,0.0283,-0.5164,-0.0336,0.0736,0.0238,218.9700,50.37561744,16.28178611,0.22000000,
13:20:15:366,-0.0769,0.0283,-0.5164,-0.0336,0.0736,0.0238,219.9825,50.37561744,16.28178611,0.22000000,
13:20:15:370,-0.0769,0.0283,-0.5164,0.0073,0.0880,0.0706,219.9825,50.37561744,16.28178611,0.22000000,
13:20:15:383,-0.3731,0.0539,-0.3749,0.0073,0.0880,0.0706,219.9825,50.37561744,16.28178611,0.22000000,
13:20:15:426,-0.3731,0.0539,-0.3749,0.0073,0.0880,0.0706,219.9825,50.37561744,16.28178611,0.22000000,
13:20:15:437,-0.3731,0.0539,-0.3749,-0.0808,0.3213,0.0374,219.9825,50.37561744,16.28178611,0.22000000,
13:20:15:450,-0.7120,-0.1948,-0.1251,-0.0808,0.3213,0.0374,219.9825,50.37561744,16.28178611,0.22000000,
13:20:15:492,-0.7120,-0.1948,-0.1251,-0.0808,0.3213,0.0374,219.9825,50.37561744,16.28178611,0.22000000,
13:20:15:506,-0.7120,-0.1948,-0.1251,-0.3496,0.5793,-0.0367,219.9825,50.37561744,16.28178611,0.22000000,
13:20:15:518,-0.9252,-0.3498,-0.5970,-0.3496,0.5793,-0.0367,219.9825,50.37561744,16.28178611,0.22000000,
13:20:15:525,-0.9252,-0.3498,-0.5970,-0.3496,0.5793,-0.0367,225.9900,50.37561744,16.28178611,0.22000000,
13:20:15:560,-0.9252,-0.3498,-0.5970,-0.3496,0.5793,-0.0367,225.9900,50.37561744,16.28178611,0.22000000,
13:20:15:573,-0.9252,-0.3498,-0.5970,-0.2834,0.7598,0.0037,225.9900,50.37561744,16.28178611,0.22000000,
13:20:15:586,-1.7414,-0.2287,0.2326,-0.2834,0.7598,0.0037,225.9900,50.37561744,16.28178611,0.22000000,
13:20:15:628,-1.7414,-0.2287,0.2326,-0.2834,0.7598,0.0037,225.9900,50.37561744,16.28178611,0.22000000,
13:20:15:641,-1.7414,-0.2287,0.2326,-0.2158,0.8199,0.0924,225.9900,50.37561744,16.28178611,0.22000000,
13:20:15:654,-1.4419,0.1916,0.1554,-0.2158,0.8199,0.0924,225.9900,50.37561744,16.28178611,0.22000000,
13:20:15:685,-1.4419,0.1916,0.1554,-0.2158,0.8199,0.0924,239.0175,50.37561744,16.28178611,0.22000000,
13:20:15:699,-1.4419,0.1916,0.1554,-0.2158,0.8199,0.0924,239.0175,50.37561744,16.28178611,0.22000000,
13:20:15:709,-1.4419,0.1916,0.1554,-0.2350,0.9074,0.0579,239.0175,50.37561744,16.28178611,0.22000000,
13:20:15:722,-0.7485,0.1451,0.0304,-0.2350,0.9074,0.0579,239.0175,50.37561744,16.28178611,0.22000000,
13:20:15:763,-0.7485,0.1451,0.0304,-0.2350,0.9074,0.0579,239.0175,50.37561744,16.28178611,0.22000000,
13:20:15:776,-0.7485,0.1451,0.0304,-0.3772,1.0212,-0.0397,239.0175,50.37561744,16.28178611,0.22000000,
13:20:15:789,-0.1102,-0.0200,-0.3125,-0.3772,1.0212,-0.0397,239.0175,50.37561744,16.28178611,0.22000000,
13:20:15:832,-0.1102,-0.0200,-0.3125,-0.3772,1.0212,-0.0397,239.0175,50.37561744,16.28178611,0.22000000,
13:20:15:844,-0.1102,-0.0200,-0.3125,-0.4943,1.0571,-0.1610,239.0175,50.37561744,16.28178611,0.22000000,
13:20:15:847,-0.1102,-0.0200,-0.3125,-0.4943,1.0571,-0.1610,245.9700,50.37561744,16.28178611,0.22000000,
13:20:15:857,0.5522,-0.0719,-0.2729,-0.4943,1.0571,-0.1610,245.9700,50.37561744,16.28178611,0.22000000,
13:20:15:899,0.5522,-0.0719,-0.2729,-0.4943,1.0571,-0.1610,245.9700,50.37561744,16.28178611,0.22000000,
13:20:15:912,0.5522,-0.0719,-0.2729,-0.5716,1.1719,-0.1753,245.9700,50.37561744,16.28178611,0.22000000,
13:20:15:924,0.3564,-0.1529,-0.1722,-0.5716,1.1719,-0.1753,245.9700,50.37561744,16.28178611,0.22000000,
13:20:15:966,0.3564,-0.1529,-0.1722,-0.5716,1.1719,-0.1753,245.9700,50.37561744,16.28178611,0.22000000,
13:20:15:980,0.3564,-0.1529,-0.1722,-0.6487,1.1692,-0.1956,245.9700,50.37561744,16.28178611,0.22000000,
13:20:15:992,0.5970,-0.1021,-0.0244,-0.6487,1.1692,-0.1956,245.9700,50.37561744,16.28178611,0.22000000,
13:20:16:004,0.5970,-0.1021,-0.0244,-0.6487,1.1692,-0.1956,257.9850,50.37561744,16.28178611,0.22000000,
13:20:16:035,0.5970,-0.1021,-0.0244,-0.6487,1.1692,-0.1956,257.9850,50.37561744,16.28178611,0.22000000,
13:20:16:047,0.5970,-0.1021,-0.0244,-0.5823,1.1819,-0.1481,257.9850,50.37561744,16.28178611,0.22000000,
13:20:16:060,0.4200,-0.0657,0.3190,-0.5823,1.1819,-0.1481,257.9850,50.37561744,16.28178611,0.22000000,
13:20:16:103,0.4200,-0.0657,0.3190,-0.5823,1.1819,-0.1481,257.9850,50.37561744,16.28178611,0.22000000,
13:20:16:119,0.4200,-0.0657,0.3190,-0.6217,1.2149,-0.1620,257.9850,50.37561744,16.28178611,0.22000000,
13:20:16:127,0.1579,0.2352,0.4431,-0.6217,1.2149,-0.1620,257.9850,50.37561744,16.28178611,0.22000000,
13:20:16:166,0.1579,0.2352,0.4431,-0.6217,1.2149,-0.1620,262.9800,50.37561744,16.28178611,0.22000000,
13:20:16:171,0.1579,0.2352,0.4431,-0.6217,1.2149,-0.1620,262.9800,50.37561744,16.28178611,0.22000000,
13:20:16:183,0.1579,0.2352,0.4431,-0.5605,1.0467,-0.1348,262.9800,50.37561744,16.28178611,0.22000000,
13:20:16:197,0.2747,0.4025,0.3131,-0.5605,1.0467,-0.1348,262.9800,50.37561744,16.28178611,0.22000000,
13:20:16:238,0.2747,0.4025,0.3131,-0.5605,1.0467,-0.1348,262.9800,50.37561744,16.28178611,0.22000000,
13:20:16:251,0.2747,0.4025,0.3131,-0.6625,1.0522,-0.0258,262.9800,50.37561744,16.28178611,0.22000000,
13:20:16:265,0.3382,0.1832,0.3458,-0.6625,1.0522,-0.0258,262.9800,50.37561744,16.28178611,0.22000000,
13:20:16:307,0.3382,0.1832,0.3458,-0.6625,1.0522,-0.0258,262.9800,50.37561744,16.28178611,0.22000000,
13:20:16:319,0.3382,0.1832,0.3458,-0.7460,0.8292,0.0144,262.9800,50.37561744,16.28178611,0.22000000,
13:20:16:325,0.3382,0.1832,0.3458,-0.7460,0.8292,0.0144,276.0075,50.37561744,16.28178611,0.22000000,
13:20:16:332,0.7112,-0.0321,0.1304,-0.7460,0.8292,0.0144,276.0075,50.37561744,16.28178611,0.22000000,
13:20:16:374,0.7112,-0.0321,0.1304,-0.7460,0.8292,0.0144,276.0075,50.37561744,16.28178611,0.22000000,
13:20:16:387,0.7112,-0.0321,0.1304,-0.7306,0.7741,0.1622,276.0075,50.37561744,16.28178611,0.22000000,
13:20:16:400,0.6158,-0.2146,0.3884,-0.7306,0.7741,0.1622,276.0075,50.37561744,16.28178611,0.22000000,
13:20:16:443,0.6158,-0.2146,0.3884,-0.7306,0.7741,0.1622,276.0075,50.37561744,16.28178611,0.22000000,
13:20:16:455,0.6158,-0.2146,0.3884,-0.7908,0.7213,0.2080,276.0075,50.37561744,16.28178611,0.22000000,
13:20:16:467,0.5631,0.4554,0.1581,-0.7908,0.7213,0.2080,276.0075,50.37561744,16.28178611,0.22000000,
13:20:16:486,0.5631,0.4554,0.1581,-0.7908,0.7213,0.2080,298.0125,50.37561744,16.28178611,0.22000000,
13:20:16:515,0.5631,0.4554,0.1581,-0.7908,0.7213,0.2080,298.0125,50.37561744,16.28178611,0.22000000,
13:20:16:522,0.5631,0.4554,0.1581,-0.7425,0.7088,0.0426,298.0125,50.37561744,16.28178611,0.22000000,
13:20:16:535,0.4138,1.2585,0.0881,-0.7425,0.7088,0.0426,298.0125,50.37561744,16.28178611,0.22000000,
13:20:16:578,0.4138,1.2585,0.0881,-0.7425,0.7088,0.0426,298.0125,50.37561744,16.28178611,0.22000000,
13:20:16:590,0.4138,1.2585,0.0881,-0.5272,0.8066,0.0840,298.0125,50.37561744,16.28178611,0.22000000,
13:20:16:602,0.2737,1.1277,0.8020,-0.5272,0.8066,0.0840,298.0125,50.37561744,16.28178611,0.22000000,
13:20:16:645,0.2737,1.1277,0.8020,-0.5272,0.8066,0.0840,321.0300,50.37561744,16.28178611,0.22000000,
13:20:16:650,0.2737,1.1277,0.8020,-0.5272,0.8066,0.0840,321.0300,50.37561744,16.28178611,0.22000000,
13:20:16:658,0.2737,1.1277,0.8020,-0.2579,0.8325,0.0869,321.0300,50.37561744,16.28178611,0.22000000,
13:20:16:671,0.3683,0.7734,1.2613,-0.2579,0.8325,0.0869,321.0300,50.37561744,16.28178611,0.22000000,
13:20:16:713,0.3683,0.7734,1.2613,-0.2579,0.8325,0.0869,321.0300,50.37561744,16.28178611,0.22000000,
13:20:16:726,0.3683,0.7734,1.2613,-0.1093,0.7750,0.0765,321.0300,50.37561744,16.28178611,0.22000000,
13:20:16:738,0.6734,0.3584,0.7838,-0.1093,0.7750,0.0765,321.0300,50.37561744,16.28178611,0.22000000,
13:20:16:782,0.6734,0.3584,0.7838,-0.1093,0.7750,0.0765,321.0300,50.37561744,16.28178611,0.22000000,
13:20:16:793,0.6734,0.3584,0.7838,-0.2036,0.6637,0.0683,321.0300,50.37561744,16.28178611,0.22000000,
13:20:16:805,0.6734,0.3584,0.7838,-0.2036,0.6637,0.0683,326.0250,50.37561744,16.28178611,0.22000000,
13:20:16:806,1.0769,0.3066,-0.1995,-0.2036,0.6637,0.0683,326.0250,50.37561744,16.28178611,0.22000000,
13:20:16:848,1.0769,0.3066,-0.1995,-0.2036,0.6637,0.0683,326.0250,50.37561744,16.28178611,0.22000000,
13:20:16:863,1.0769,0.3066,-0.1995,-0.0754,0.2682,0.3528,326.0250,50.37561744,16.28178611,0.22000000,
13:20:16:874,0.5605,-0.0811,-0.1976,-0.0754,0.2682,0.3528,326.0250,50.37561744,16.28178611,0.22000000,
13:20:16:916,0.5605,-0.0811,-0.1976,-0.0754,0.2682,0.3528,326.0250,50.37561744,16.28178611,0.22000000,
13:20:16:930,0.5605,-0.0811,-0.1976,-0.0231,0.2825,0.0828,326.0250,50.37561744,16.28178611,0.22000000,
13:20:16:943,1.2395,0.0064,0.4638,-0.0231,0.2825,0.0828,326.0250,50.37561744,16.28178611,0.22000000,
13:20:16:965,1.2395,0.0064,0.4638,-0.0231,0.2825,0.0828,325.0125,50.37561744,16.28178611,0.22000000,
13:20:16:983,1.2395,0.0064,0.4638,-0.0231,0.2825,0.0828,325.0125,50.37561744,16.28178611,0.22000000,
13:20:16:995,1.2395,0.0064,0.4638,0.0275,0.1625,0.0192,325.0125,50.37561744,16.28178611,0.22000000,
13:20:17:009,0.9442,0.2626,-0.3153,0.0275,0.1625,0.0192,325.0125,50.37561744,16.28178611,0.22000000,
13:20:17:052,0.9442,0.2626,-0.3153,0.0275,0.1625,0.0192,325.0125,50.37561744,16.28178611,0.22000000,
13:20:17:066,0.9442,0.2626,-0.3153,0.1130,-0.2175,-0.1087,325.0125,50.37561744,16.28178611,0.22000000,
13:20:17:076,-0.2955,0.1594,-0.7231,0.1130,-0.2175,-0.1087,325.0125,50.37561744,16.28178611,0.22000000,
13:20:17:119,-0.2955,0.1594,-0.7231,0.1130,-0.2175,-0.1087,325.0125,50.37561744,16.28178611,0.22000000,
13:20:17:126,-0.2955,0.1594,-0.7231,0.1130,-0.2175,-0.1087,322.9875,50.37561744,16.28178611,0.22000000,
13:20:17:133,-0.2955,0.1594,-0.7231,-0.2416,-0.0434,-0.1697,322.9875,50.37561744,16.28178611,0.22000000,
13:20:17:146,-0.3229,0.1562,-1.3090,-0.2416,-0.0434,-0.1697,322.9875,50.37561744,16.28178611,0.22000000,
13:20:17:188,-0.3229,0.1562,-1.3090,-0.2416,-0.0434,-0.1697,322.9875,50.37561744,16.28178611,0.22000000,
13:20:17:199,-0.3229,0.1562,-1.3090,0.0101,-0.1089,0.0290,322.9875,50.37561744,16.28178611,0.22000000,
13:20:17:214,-0.9645,-0.4839,0.4182,0.0101,-0.1089,0.0290,322.9875,50.37561744,16.28178611,0.22000000,
13:20:17:255,-0.9645,-0.4839,0.4182,0.0101,-0.1089,0.0290,322.9875,50.37561744,16.28178611,0.22000000,
13:20:17:268,-0.9645,-0.4839,0.4182,0.0170,0.0205,0.1312,322.9875,50.37561744,16.28178611,0.22000000,
13:20:17:282,-0.7396,-0.5660,0.3966,0.0170,0.0205,0.1312,322.9875,50.37561744,16.28178611,0.22000000,
13:20:17:286,-0.7396,-0.5660,0.3966,0.0170,0.0205,0.1312,324.0000,50.37561744,16.28178611,0.22000000,
13:20:17:323,-0.7396,-0.5660,0.3966,0.0170,0.0205,0.1312,324.0000,50.37561744,16.28178611,0.22000000,
13:20:17:336,-0.7396,-0.5660,0.3966,0.1139,-0.1414,0.1788,324.0000,50.37561744,16.28178611,0.22000000,
13:20:17:349,-0.9644,0.1373,0.1194,0.1139,-0.1414,0.1788,324.0000,50.37561744,16.28178611,0.22000000,
13:20:17:391,-0.9644,0.1373,0.1194,0.1139,-0.1414,0.1788,324.0000,50.37561744,16.28178611,0.22000000,
13:20:17:403,-0.9644,0.1373,0.1194,-0.0122,0.0913,0.0131,324.0000,50.37561744,16.28178611,0.22000000,
13:20:17:417,0.3156,0.0663,0.0424,-0.0122,0.0913,0.0131,324.0000,50.37561744,16.28178611,0.22000000,
13:20:17:446,0.3156,0.0663,0.0424,-0.0122,0.0913,0.0131,326.0250,50.37561744,16.28178611,0.22000000,
13:20:17:459,0.3156,0.0663,0.0424,-0.0122,0.0913,0.0131,326.0250,50.37561744,16.28178611,0.22000000,
13:20:17:471,0.3156,0.0663,0.0424,0.0079,-0.0654,-0.0689,326.0250,50.37561744,16.28178611,0.22000000,
13:20:17:484,0.1753,0.1292,-0.2375,0.0079,-0.0654,-0.0689,326.0250,50.37561744,16.28178611,0.22000000,
13:20:17:526,0.1753,0.1292,-0.2375,0.0079,-0.0654,-0.0689,326.0250,50.37561744,16.28178611,0.22000000,
13:20:17:539,0.1753,0.1292,-0.2375,-0.0768,0.0269,-0.1695,326.0250,50.37561744,16.28178611,0.22000000,
13:20:17:552,0.5642,0.0068,-0.2553,-0.0768,0.0269,-0.1695,326.0250,50.37561744,16.28178611,0.22000000,
13:20:17:595,0.5642,0.0068,-0.2553,-0.0768,0.0269,-0.1695,326.0250,50.37561744,16.28178611,0.22000000,
13:20:17:608,0.5642,0.0068,-0.2553,0.0081,-0.0020,-0.1268,326.0250,50.37561744,16.28178611,0.22000000,
13:20:17:619,-0.3030,-0.0525,0.2279,0.0081,-0.0020,-0.1268,326.0250,50.37561744,16.28178611,0.22000000,
13:20:17:663,-0.3030,-0.0525,0.2279,0.0081,-0.0020,-0.1268,326.0250,50.37561744,16.28178611,0.22000000,
13:20:17:675,-0.3030,-0.0525,0.2279,0.0524,0.0162,0.0174,326.0250,50.37561744,16.28178611,0.22000000,
13:20:17:688,-0.4846,-0.3394,0.2490,0.0524,0.0162,0.0174,326.0250,50.37561744,16.28178611,0.22000000,
13:20:17:729,-0.4846,-0.3394,0.2490,0.0524,0.0162,0.0174,326.0250,50.37561744,16.28178611,0.22000000,
13:20:17:743,-0.4846,-0.3394,0.2490,-0.0195,-0.0519,0.0107,326.0250,50.37561744,16.28178611,0.22000000,
13:20:17:755,-0.4294,-0.1702,-0.2596,-0.0195,-0.0519,0.0107,326.0250,50.37561744,16.28178611,0.22000000,
13:20:17:765,-0.4294,-0.1702,-0.2596,-0.0195,-0.0519,0.0107,324.0000,50.37561744,16.28178611,0.22000000,
13:20:17:797,-0.4294,-0.1702,-0.2596,-0.0195,-0.0519,0.0107,324.0000,50.37561744,16.28178611,0.22000000,
13:20:17:810,-0.4294,-0.1702,-0.2596,-0.0231,-0.0315,-0.1022,324.0000,50.37561744,16.28178611,0.22000000,
13:20:17:824,0.1945,0.1151,-0.0668,-0.0231,-0.0315,-0.1022,324.0000,50.37561744,16.28178611,0.22000000,
13:20:17:866,0.1945,0.1151,-0.0668,-0.0231,-0.0315,-0.1022,324.0000,50.37561744,16.28178611,0.22000000,
13:20:17:880,0.1945,0.1151,-0.0668,-0.0513,-0.0017,-0.2472,324.0000,50.37561744,16.28178611,0.22000000,
13:20:17:890,0.7208,0.2246,0.0026,-0.0513,-0.0017,-0.2472,324.0000,50.37561744,16.28178611,0.22000000,
13:20:17:933,0.7208,0.2246,0.0026,-0.0513,-0.0017,-0.2472,324.0000,50.37561744,16.28178611,0.22000000,
13:20:17:947,0.7208,0.2246,0.0026,0.0756,-0.0644,-0.2097,324.0000,50.37561744,16.28178611,0.22000000,
13:20:17:958,0.1668,0.1607,0.4595,0.0756,-0.0644,-0.2097,324.0000,50.37561744,16.28178611,0.22000000,
13:20:18:001,0.1668,0.1607,0.4595,0.0756,-0.0644,-0.2097,324.0000,50.37561744,16.28178611,0.22000000,
13:20:18:014,0.1668,0.1607,0.4595,0.1439,-0.0308,-0.0985,324.0000,50.37562199,16.28176774,0.00000000,
13:20:18:026,-0.2199,-0.3513,0.3828,0.1439,-0.0308,-0.0985,324.0000,50.37562199,16.28176774,0.00000000,
13:20:18:069,-0.2199,-0.3513,0.3828,0.1439,-0.0308,-0.0985,324.0000,50.37562199,16.28176774,0.00000000,
13:20:18:082,-0.2199,-0.3513,0.3828,0.0538,-0.0593,-0.1648,324.0000,50.37562199,16.28176774,0.00000000,
13:20:18:087,-0.2199,-0.3513,0.3828,0.0538,-0.0593,-0.1648,321.9750,50.37562199,16.28176774,0.00000000,
13:20:18:095,0.1074,-0.1676,-0.2152,0.0538,-0.0593,-0.1648,321.9750,50.37562199,16.28176774,0.00000000,
13:20:18:137,0.1074,-0.1676,-0.2152,0.0538,-0.0593,-0.1648,321.9750,50.37562199,16.28176774,0.00000000,
13:20:18:149,0.1074,-0.1676,-0.2152,0.0632,-0.2914,0.0119,321.9750,50.37562199,16.28176774,0.00000000,
13:20:18:162,-0.5198,-0.2110,-0.3377,0.0632,-0.2914,0.0119,321.9750,50.37562199,16.28176774,0.00000000,
13:20:18:204,-0.5198,-0.2110,-0.3377,0.0632,-0.2914,0.0119,321.9750,50.37562199,16.28176774,0.00000000,
13:20:18:217,-0.5198,-0.2110,-0.3377,-0.0522,-0.1075,-0.1590,321.9750,50.37562199,16.28176774,0.00000000,
13:20:18:231,0.3472,-0.0948,-0.0309,-0.0522,-0.1075,-0.1590,321.9750,50.37562199,16.28176774,0.00000000,
13:20:18:272,0.3472,-0.0948,-0.0309,-0.0522,-0.1075,-0.1590,321.9750,50.37562199,16.28176774,0.00000000,
13:20:18:284,0.3472,-0.0948,-0.0309,0.0970,-0.0515,-0.1045,321.9750,50.37562199,16.28176774,0.00000000,
13:20:18:298,-0.0179,-0.2676,0.3955,0.0970,-0.0515,-0.1045,321.9750,50.37562199,16.28176774,0.00000000,
13:20:18:340,-0.0179,-0.2676,0.3955,0.0970,-0.0515,-0.1045,321.9750,50.37562199,16.28176774,0.00000000,
13:20:18:354,-0.0179,-0.2676,0.3955,0.0583,-0.0912,-0.1823,321.9750,50.37562199,16.28176774,0.00000000,
13:20:18:364,-0.0699,0.1164,0.1715,0.0583,-0.0912,-0.1823,321.9750,50.37562199,16.28176774,0.00000000,
13:20:18:405,-0.0699,0.1164,0.1715,0.0583,-0.0912,-0.1823,317.9925,50.37562199,16.28176774,0.00000000,
13:20:18:408,-0.0699,0.1164,0.1715,0.0583,-0.0912,-0.1823,317.9925,50.37562199,16.28176774,0.00000000,
13:20:18:421,-0.0699,0.1164,0.1715,-0.0350,-0.1461,-0.2416,317.9925,50.37562199,16.28176774,0.00000000,
13:20:18:433,0.2209,0.3244,-0.3373,-0.0350,-0.1461,-0.2416,317.9925,50.37562199,16.28176774,0.00000000,
13:20:18:476,0.2209,0.3244,-0.3373,-0.0350,-0.1461,-0.2416,317.9925,50.37562199,16.28176774,0.00000000,
13:20:18:488,0.2209,0.3244,-0.3373,0.1301,-0.3572,-0.0110,317.9925,50.37562199,16.28176774,0.00000000,
13:20:18:503,-0.1533,-0.4911,0.3176,0.1301,-0.3572,-0.0110,317.9925,50.37562199,16.28176774,0.00000000,
13:20:18:545,-0.1533,-0.4911,0.3176,0.1301,-0.3572,-0.0110,317.9925,50.37562199,16.28176774,0.00000000,
13:20:18:556,-0.1533,-0.4911,0.3176,0.3606,-0.7115,0.3457,317.9925,50.37562199,16.28176774,0.00000000,
13:20:18:565,-0.1533,-0.4911,0.3176,0.3606,-0.7115,0.3457,315.9675,50.37562199,16.28176774,0.00000000,
13:20:18:569,0.7650,-0.8594,0.8990,0.3606,-0.7115,0.3457,315.9675,50.37562199,16.28176774,0.00000000,
13:20:18:611,0.7650,-0.8594,0.8990,0.3606,-0.7115,0.3457,315.9675,50.37562199,16.28176774,0.00000000,
13:20:18:624,0.7650,-0.8594,0.8990,0.3571,-1.0502,0.2555,315.9675,50.37562199,16.28176774,0.00000000,
13:20:18:636,2.1464,-0.8468,0.4133,0.3571,-1.0502,0.2555,315.9675,50.37562199,16.28176774,0.00000000,
13:20:18:679,2.1464,-0.8468,0.4133,0.3571,-1.0502,0.2555,315.9675,50.37562199,16.28176774,0.00000000,
13:20:18:692,2.1464,-0.8468,0.4133,-0.1350,-1.4539,-0.1301,315.9675,50.37562199,16.28176774,0.00000000,
13:20:18:705,2.8299,-0.3261,-1.1426,-0.1350,-1.4539,-0.1301,315.9675,50.37562199,16.28176774,0.00000000,
13:20:18:726,2.8299,-0.3261,-1.1426,-0.1350,-1.4539,-0.1301,301.9950,50.37562199,16.28176774,0.00000000,
13:20:18:747,2.8299,-0.3261,-1.1426,-0.1350,-1.4539,-0.1301,301.9950,50.37562199,16.28176774,0.00000000,
13:20:18:759,2.8299,-0.3261,-1.1426,-0.3496,-1.7484,-0.3691,301.9950,50.37562199,16.28176774,0.00000000,
13:20:18:772,1.7823,-0.3235,-0.7329,-0.3496,-1.7484,-0.3691,301.9950,50.37562199,16.28176774,0.00000000,
13:20:18:815,1.7823,-0.3235,-0.7329,-0.3496,-1.7484,-0.3691,301.9950,50.37562199,16.28176774,0.00000000,
13:20:18:829,1.7823,-0.3235,-0.7329,-0.5531,-1.9726,-0.6002,301.9950,50.37562199,16.28176774,0.00000000,
13:20:18:840,0.4515,-0.4005,0.2192,-0.5531,-1.9726,-0.6002,301.9950,50.37562199,16.28176774,0.00000000,
13:20:18:882,0.4515,-0.4005,0.2192,-0.5531,-1.9726,-0.6002,301.9950,50.37562199,16.28176774,0.00000000,
13:20:18:887,0.4515,-0.4005,0.2192,-0.5531,-1.9726,-0.6002,265.0050,50.37562199,16.28176774,0.00000000,
13:20:18:896,0.4515,-0.4005,0.2192,-0.8555,-1.8515,-0.7474,265.0050,50.37562199,16.28176774,0.00000000,
13:20:18:908,-0.5158,-0.4070,0.5353,-0.8555,-1.8515,-0.7474,265.0050,50.37562199,16.28176774,0.00000000,
13:20:18:951,-0.5158,-0.4070,0.5353,-0.8555,-1.8515,-0.7474,265.0050,50.37562199,16.28176774,0.00000000,
13:20:18:966,-0.5158,-0.4070,0.5353,-0.9934,-1.6327,-0.8106,265.0050,50.37562199,16.28176774,0.00000000,
13:20:18:976,-1.1798,-0.3252,0.5223,-0.9934,-1.6327,-0.8106,265.0050,50.37562199,16.28176774,0.00000000,
13:20:19:018,-1.1798,-0.3252,0.5223,-0.9934,-1.6327,-0.8106,265.0050,50.37562199,16.28176774,0.00000000,
13:20:19:047,-1.1798,-0.3252,0.5223,-0.8373,-1.8651,-0.7448,265.0050,50.37562199,16.28176774,0.00000000,
13:20:19:048,-1.9119,-0.1148,1.1511,-0.8373,-1.8651,-0.7448,265.0050,50.37562199,16.28176774,0.00000000,
13:20:19:050,-1.9119,-0.1148,1.1511,-0.8373,-1.8651,-0.7448,252.9900,50.37562199,16.28176774,0.00000000,
13:20:19:086,-1.9119,-0.1148,1.1511,-0.8373,-1.8651,-0.7448,252.9900,50.37562199,16.28176774,0.00000000,
13:20:19:099,-1.9119,-0.1148,1.1511,-1.0991,-1.9482,-0.8059,252.9900,50.37562199,16.28176774,0.00000000,
13:20:19:112,-1.5783,0.3977,0.6961,-1.0991,-1.9482,-0.8059,252.9900,50.37562199,16.28176774,0.00000000,
13:20:19:154,-1.5783,0.3977,0.6961,-1.0991,-1.9482,-0.8059,252.9900,50.37562199,16.28176774,0.00000000,
13:20:19:166,-1.5783,0.3977,0.6961,-1.9254,-1.7976,-0.7408,252.9900,50.37562199,16.28176774,0.00000000,
13:20:19:179,-1.1721,0.7857,-0.7700,-1.9254,-1.7976,-0.7408,252.9900,50.37562199,16.28176774,0.00000000,
13:20:19:205,-1.1721,0.7857,-0.7700,-1.9254,-1.7976,-0.7408,251.0325,50.37562199,16.28176774,0.00000000,
13:20:19:223,-1.1721,0.7857,-0.7700,-1.9254,-1.7976,-0.7408,251.0325,50.37562199,16.28176774,0.00000000,
13:20:19:234,-1.1721,0.7857,-0.7700,-2.0458,-1.9012,-0.3140,251.0325,50.37562199,16.28176774,0.00000000,
13:20:19:246,-1.3239,0.6768,-0.4221,-2.0458,-1.9012,-0.3140,251.0325,50.37562199,16.28176774,0.00000000,
13:20:19:289,-1.3239,0.6768,-0.4221,-2.0458,-1.9012,-0.3140,251.0325,50.37562199,16.28176774,0.00000000,
13:20:19:302,-1.3239,0.6768,-0.4221,-1.2886,-2.8026,-0.7592,251.0325,50.37562199,16.28176774,0.00000000,
13:20:19:315,-2.6215,0.8618,0.2503,-1.2886,-2.8026,-0.7592,251.0325,50.37562199,16.28176774,0.00000000,
13:20:19:356,-2.6215,0.8618,0.2503,-1.2886,-2.8026,-0.7592,251.0325,50.37562199,16.28176774,0.00000000,
13:20:19:365,-2.6215,0.8618,0.2503,-1.2886,-2.8026,-0.7592,224.9775,50.37562199,16.28176774,0.00000000,
13:20:19:370,-2.6215,0.8618,0.2503,-0.0386,-2.9902,0.5528,224.9775,50.37562199,16.28176774,0.00000000,
13:20:19:383,-3.4957,-0.9165,2.2370,-0.0386,-2.9902,0.5528,224.9775,50.37562199,16.28176774,0.00000000,
13:20:19:426,-3.4957,-0.9165,2.2370,-0.0386,-2.9902,0.5528,224.9775,50.37562199,16.28176774,0.00000000,
13:20:19:437,-3.4957,-0.9165,2.2370,1.4048,-5.3568,-0.6390,224.9775,50.37562199,16.28176774,0.00000000,
13:20:19:451,-3.7282,-0.5012,4.4756,1.4048,-5.3568,-0.6390,224.9775,50.37562199,16.28176774,0.00000000,
13:20:19:493,-3.7282,-0.5012,4.4756,1.4048,-5.3568,-0.6390,224.9775,50.37562199,16.28176774,0.00000000,
13:20:19:505,-3.7282,-0.5012,4.4756,0.8827,-5.3861,0.4099,224.9775,50.37562199,16.28176774,0.00000000,
13:20:19:517,-4.4012,-0.3981,3.2941,0.8827,-5.3861,0.4099,224.9775,50.37562199,16.28176774,0.00000000,
13:20:19:525,-4.4012,-0.3981,3.2941,0.8827,-5.3861,0.4099,155.9925,50.37562199,16.28176774,0.00000000,
13:20:19:561,-4.4012,-0.3981,3.2941,0.8827,-5.3861,0.4099,155.9925,50.37562199,16.28176774,0.00000000,
13:20:19:573,-4.4012,-0.3981,3.2941,1.2162,-4.8807,0.4178,155.9925,50.37562199,16.28176774,0.00000000,
13:20:19:586,-1.3200,-0.7208,1.2626,1.2162,-4.8807,0.4178,155.9925,50.37562199,16.28176774,0.00000000,
13:20:19:628,-1.3200,-0.7208,1.2626,1.2162,-4.8807,0.4178,155.9925,50.37562199,16.28176774,0.00000000,
13:20:19:642,-1.3200,-0.7208,1.2626,3.2379,-5.4132,-0.5380,155.9925,50.37562199,16.28176774,0.00000000,
13:20:19:654,2.7336,-1.8189,5.2811,3.2379,-5.4132,-0.5380,155.9925,50.37562199,16.28176774,0.00000000,
13:20:19:685,2.7336,-1.8189,5.2811,3.2379,-5.4132,-0.5380,88.0200,50.37562199,16.28176774,0.00000000,
13:20:19:696,2.7336,-1.8189,5.2811,3.2379,-5.4132,-0.5380,88.0200,50.37562199,16.28176774,0.00000000,
13:20:19:710,2.7336,-1.8189,5.2811,3.5343,-3.8426,-0.3088,88.0200,50.37562199,16.28176774,0.00000000,
13:20:19:722,0.2312,-2.1660,3.0899,3.5343,-3.8426,-0.3088,88.0200,50.37562199,16.28176774,0.00000000,
13:20:19:764,0.2312,-2.1660,3.0899,3.5343,-3.8426,-0.3088,88.0200,50.37562199,16.28176774,0.00000000,
13:20:19:777,0.2312,-2.1660,3.0899,2.4706,-3.1705,-0.4687,88.0200,50.37562199,16.28176774,0.00000000,
13:20:19:790,2.4306,-1.6333,-1.0771,2.4706,-3.1705,-0.4687,88.0200,50.37562199,16.28176774,0.00000000,
13:20:19:832,2.4306,-1.6333,-1.0771,2.4706,-3.1705,-0.4687,88.0200,50.37562199,16.28176774,0.00000000,
13:20:19:844,2.4306,-1.6333,-1.0771,2.2498,-1.8173,-0.4094,88.0200,50.37562199,16.28176774,0.00000000,
13:20:19:850,2.4306,-1.6333,-1.0771,2.2498,-1.8173,-0.4094,35.9775,50.37562199,16.28176774,0.00000000,
13:20:19:857,1.6365,-0.5888,-1.4005,2.2498,-1.8173,-0.4094,35.9775,50.37562199,16.28176774,0.00000000,
13:20:19:900,1.6365,-0.5888,-1.4005,2.2498,-1.8173,-0.4094,35.9775,50.37562199,16.28176774,0.00000000,
13:20:19:912,1.6365,-0.5888,-1.4005,1.9019,-1.5864,-0.5628,35.9775,50.37562199,16.28176774,0.00000000,
13:20:19:924,0.4551,-0.9344,-1.4884,1.9019,-1.5864,-0.5628,35.9775,50.37562199,16.28176774,0.00000000,
13:20:19:967,0.4551,-0.9344,-1.4884,1.9019,-1.5864,-0.5628,35.9775,50.37562199,16.28176774,0.00000000,
13:20:19:979,0.4551,-0.9344,-1.4884,0.9219,-0.9429,-0.2714,35.9775,50.37562199,16.28176774,0.00000000,
13:20:19:993,-1.7764,-1.5281,-2.4545,0.9219,-0.9429,-0.2714,35.9775,50.37562199,16.28176774,0.00000000,
13:20:20:004,-1.7764,-1.5281,-2.4545,0.9219,-0.9429,-0.2714,24.0300,50.37562199,16.28176774,0.00000000,
13:20:20:035,-1.7764,-1.5281,-2.4545,0.9219,-0.9429,-0.2714,24.0300,50.37562199,16.28176774,0.00000000,
13:20:20:047,-1.7764,-1.5281,-2.4545,0.0522,0.0983,0.0519,24.0300,50.37562199,16.28176774,0.00000000,
13:20:20:062,-1.8598,-1.6607,-2.9109,0.0522,0.0983,0.0519,24.0300,50.37562199,16.28176774,0.00000000,
13:20:20:103,-1.8598,-1.6607,-2.9109,0.0522,0.0983,0.0519,24.0300,50.37562199,16.28176774,0.00000000,
13:20:20:116,-1.8598,-1.6607,-2.9109,0.0475,-0.1379,-0.0334,24.0300,50.37562199,16.28176774,0.00000000,
13:20:20:128,-1.2418,-1.6752,-1.2332,0.0475,-0.1379,-0.0334,24.0300,50.37562199,16.28176774,0.00000000,
13:20:20:165,-1.2418,-1.6752,-1.2332,0.0475,-0.1379,-0.0334,4.9950,50.37562199,16.28176774,0.00000000,
13:20:20:171,-1.2418,-1.6752,-1.2332,0.0475,-0.1379,-0.0334,4.9950,50.37562199,16.28176774,0.00000000,
13:20:20:184,-1.2418,-1.6752,-1.2332,0.1666,-0.2909,-0.1371,4.9950,50.37562199,16.28176774,0.00000000,
13:20:20:196,-0.8154,-1.3292,-0.5280,0.1666,-0.2909,-0.1371,4.9950,50.37562199,16.28176774,0.00000000,
13:20:20:239,-0.8154,-1.3292,-0.5280,0.1666,-0.2909,-0.1371,4.9950,50.37562199,16.28176774,0.00000000,
13:20:20:252,-0.8154,-1.3292,-0.5280,0.3221,-0.3430,-0.1973,4.9950,50.37562199,16.28176774,0.00000000,
13:20:20:264,-0.1728,-1.0219,0.2472,0.3221,-0.3430,-0.1973,4.9950,50.37562199,16.28176774,0.00000000,
13:20:20:307,-0.1728,-1.0219,0.2472,0.3221,-0.3430,-0.1973,4.9950,50.37562199,16.28176774,0.00000000,
13:20:20:318,-0.1728,-1.0219,0.2472,-0.0480,-0.0276,0.0206,4.9950,50.37562199,16.28176774,0.00000000,
13:20:20:329,-0.1728,-1.0219,0.2472,-0.0480,-0.0276,0.0206,2.0250,50.37562199,16.28176774,0.00000000,
13:20:20:333,-1.5346,-1.2311,-0.5728,-0.0480,-0.0276,0.0206,2.0250,50.37562199,16.28176774,0.00000000,
13:20:20:375,-1.5346,-1.2311,-0.5728,-0.0480,-0.0276,0.0206,2.0250,50.37562199,16.28176774,0.00000000,
13:20:20:387,-1.5346,-1.2311,-0.5728,0.3381,0.4400,0.0473,2.0250,50.37562199,16.28176774,0.00000000,
13:20:20:399,-1.2095,-0.9771,0.4618,0.3381,0.4400,0.0473,2.0250,50.37562199,16.28176774,0.00000000,
13:20:20:441,-1.2095,-0.9771,0.4618,0.3381,0.4400,0.0473,2.0250,50.37562199,16.28176774,0.00000000,
13:20:20:456,-1.2095,-0.9771,0.4618,0.0116,-0.0420,-0.0168,2.0250,50.37562199,16.28176774,0.00000000,
13:20:20:467,-0.5524,-0.6327,-0.1184,0.0116,-0.0420,-0.0168,2.0250,50.37562199,16.28176774,0.00000000,
13:20:20:486,-0.5524,-0.6327,-0.1184,0.0116,-0.0420,-0.0168,4.9950,50.37562199,16.28176774,0.00000000,
13:20:20:510,-0.5524,-0.6327,-0.1184,0.0116,-0.0420,-0.0168,4.9950,50.37562199,16.28176774,0.00000000,
13:20:20:522,-0.5524,-0.6327,-0.1184,0.0000,-0.0031,0.0000,4.9950,50.37562199,16.28176774,0.00000000,
13:20:20:536,-0.6010,-0.5349,0.0534,0.0000,-0.0031,0.0000,4.9950,50.37562199,16.28176774,0.00000000,
13:20:20:577,-0.6010,-0.5349,0.0534,0.0000,-0.0031,0.0000,4.9950,50.37562199,16.28176774,0.00000000,
13:20:20:590,-0.6010,-0.5349,0.0534,-0.0005,0.0000,-0.0000,4.9950,50.37562199,16.28176774,0.00000000,
13:20:20:602,-0.5379,-0.5725,-0.0015,-0.0005,0.0000,-0.0000,4.9950,50.37562199,16.28176774,0.00000000,
13:20:20:645,-0.5379,-0.5725,-0.0015,-0.0005,0.0000,-0.0000,4.9950,50.37562199,16.28176774,0.00000000,
13:20:20:660,-0.5379,-0.5725,-0.0015,-0.0003,-0.0000,-0.0003,4.9950,50.37562199,16.28176774,0.00000000,
13:20:20:671,-0.4819,-0.5053,0.0014,-0.0003,-0.0000,-0.0003,4.9950,50.37562199,16.28176774,0.00000000,
13:20:20:713,-0.4819,-0.5053,0.0014,-0.0003,-0.0000,-0.0003,4.9950,50.37562199,16.28176774,0.00000000,
13:20:20:727,-0.4819,-0.5053,0.0014,0.0002,-0.0000,0.0000,4.9950,50.37562199,16.28176774,0.00000000,
13:20:20:739,-0.4238,-0.4423,-0.0004,0.0002,-0.0000,0.0000,4.9950,50.37562199,16.28176774,0.00000000,
13:20:20:781,-0.4238,-0.4423,-0.0004,0.0002,-0.0000,0.0000,4.9950,50.37562199,16.28176774,0.00000000,
13:20:20:795,-0.4238,-0.4423,-0.0004,-0.0002,-0.0000,-0.0003,4.9950,50.37562199,16.28176774,0.00000000,
13:20:20:806,-0.3788,-0.3964,0.0010,-0.0002,-0.0000,-0.0003,4.9950,50.37562199,16.28176774,0.00000000,
13:20:20:848,-0.3788,-0.3964,0.0010,-0.0002,-0.0000,-0.0003,4.9950,50.37562199,16.28176774,0.00000000,
13:20:20:861,-0.3788,-0.3964,0.0010,-0.0008,-0.0008,0.0000,4.9950,50.37562199,16.28176774,0.00000000,
13:20:20:879,-0.3393,-0.3542,0.0038,-0.0008,-0.0008,0.0000,4.9950,50.37562199,16.28176774,0.00000000,
13:20:20:915,-0.3393,-0.3542,0.0038,-0.0008,-0.0008,0.0000,4.9950,50.37562199,16.28176774,0.00000000,
13:20:20:929,-0.3393,-0.3542,0.0038,-0.0011,-0.0017,0.0002,4.9950,50.37562199,16.28176774,0.00000000,
13:20:20:944,-0.2784,-0.3312,0.0028,-0.0011,-0.0017,0.0002,4.9950,50.37562199,16.28176774,0.00000000,
13:20:20:984,-0.2784,-0.3312,0.0028,-0.0011,-0.0017,0.0002,4.9950,50.37562199,16.28176774,0.00000000,
13:20:20:996,-0.2784,-0.3312,0.0028,-0.0000,0.0002,-0.0003,4.9950,50.37562199,16.28176774,0.00000000,
13:20:21:010,-0.2835,-0.2541,0.0073,-0.0000,0.0002,-0.0003,4.9950,50.37562199,16.28176774,0.00000000,
13:20:21:053,-0.2835,-0.2541,0.0073,-0.0000,0.0002,-0.0003,4.9950,50.37562199,16.28176774,0.00000000,
13:20:21:065,-0.2835,-0.2541,0.0073,-0.0009,-0.0005,-0.0003,4.9950,50.37562199,16.28176774,0.00000000,
13:20:21:077,-0.2241,-0.2596,-0.0052,-0.0009,-0.0005,-0.0003,4.9950,50.37562199,16.28176774,0.00000000,
13:20:21:120,-0.2241,-0.2596,-0.0052,-0.0009,-0.0005,-0.0003,4.9950,50.37562199,16.28176774,0.00000000,
13:20:21:133,-0.2241,-0.2596,-0.0052,-0.0008,-0.0003,0.0002,4.9950,50.37562199,16.28176774,0.00000000,
13:20:21:146,-0.2152,-0.2227,0.0044,-0.0008,-0.0003,0.0002,4.9950,50.37562199,16.28176774,0.00000000,
13:20:21:188,-0.2152,-0.2227,0.0044,-0.0008,-0.0003,0.0002,4.9950,50.37562199,16.28176774,0.00000000,
13:20:21:200,-0.2152,-0.2227,0.0044,0.0003,-0.0002,-0.0003,4.9950,50.37562199,16.28176774,0.00000000,
13:20:21:213,-0.1773,-0.1957,0.0012,0.0003,-0.0002,-0.0003,4.9950,50.37562199,16.28176774,0.00000000,
13:20:21:256,-0.1773,-0.1957,0.0012,0.0003,-0.0002,-0.0003,4.9950,50.37562199,16.28176774,0.00000000,
13:20:21:268,-0.1773,-0.1957,0.0012,0.0000,-0.0000,-0.0003,4.9950,50.37562199,16.28176774,0.00000000,
13:20:21:280,-0.1709,-0.1764,-0.0013,0.0000,-0.0000,-0.0003,4.9950,50.37562199,16.28176774,0.00000000,
13:20:21:323,-0.1709,-0.1764,-0.0013,0.0000,-0.0000,-0.0003,4.9950,50.37562199,16.28176774,0.00000000,
13:20:21:336,-0.1709,-0.1764,-0.0013,-0.0005,0.0000,-0.0003,4.9950,50.37562199,16.28176774,0.00000000,
13:20:21:349,-0.1497,-0.1543,0.0044,-0.0005,0.0000,-0.0003,4.9950,50.37562199,16.28176774,0.00000000,
13:20:21:391,-0.1497,-0.1543,0.0044,-0.0005,0.0000,-0.0003,4.9950,50.37562199,16.28176774,0.00000000,
13:20:21:403,-0.1497,-0.1543,0.0044,-0.0005,-0.0000,-0.0002,4.9950,50.37562199,16.28176774,0.00000000,
13:20:21:417,-0.1234,-0.1318,0.0002,-0.0005,-0.0000,-0.0002,4.9950,50.37562199,16.28176774,0.00000000,
13:20:21:459,-0.1234,-0.1318,0.0002,-0.0005,-0.0000,-0.0002,4.9950,50.37562199,16.28176774,0.00000000,
13:20:21:473,-0.1234,-0.1318,0.0002,-0.0002,0.0000,-0.0002,4.9950,50.37562199,16.28176774,0.00000000,
13:20:21:484,-0.1259,-0.1274,0.0026,-0.0002,0.0000,-0.0002,4.9950,50.37562199,16.28176774,0.00000000,
13:20:21:527,-0.1259,-0.1274,0.0026,-0.0002,0.0000,-0.0002,4.9950,50.37562199,16.28176774,0.00000000,
13:20:21:541,-0.1259,-0.1274,0.0026,0.0002,-0.0002,-0.0003,4.9950,50.37562199,16.28176774,0.00000000,
13:20:21:553,-0.0996,-0.1087,-0.0014,0.0002,-0.0002,-0.0003,4.9950,50.37562199,16.28176774,0.00000000,
13:20:21:596,-0.0996,-0.1087,-0.0014,0.0002,-0.0002,-0.0003,4.9950,50.37562199,16.28176774,0.00000000,
13:20:21:609,-0.0996,-0.1087,-0.0014,0.0003,0.0002,-0.0003,4.9950,50.37562199,16.28176774,0.00000000,
13:20:21:620,-0.0863,-0.0907,0.0006,0.0003,0.0002,-0.0003,4.9950,50.37562199,16.28176774,0.00000000,
13:20:21:663,-0.0863,-0.0907,0.0006,0.0003,0.0002,-0.0003,4.9950,50.37562199,16.28176774,0.00000000,
13:20:21:675,-0.0863,-0.0907,0.0006,0.0000,-0.0002,-0.0003,4.9950,50.37562199,16.28176774,0.00000000,
13:20:21:687,-0.0886,-0.0879,0.0056,0.0000,-0.0002,-0.0003,4.9950,50.37562199,16.28176774,0.00000000,
13:20:21:730,-0.0886,-0.0879,0.0056,0.0000,-0.0002,-0.0003,4.9950,50.37562199,16.28176774,0.00000000,
13:20:21:743,-0.0886,-0.0879,0.0056,-0.0002,-0.0002,-0.0002,4.9950,50.37562199,16.28176774,0.00000000,
13:20:21:756,-0.0704,-0.0782,0.0012,-0.0002,-0.0002,-0.0002,4.9950,50.37562199,16.28176774,0.00000000,
13:20:21:798,-0.0704,-0.0782,0.0012,-0.0002,-0.0002,-0.0002,4.9950,50.37562199,16.28176774,0.00000000,
13:20:21:810,-0.0704,-0.0782,0.0012,-0.0003,-0.0000,-0.0002,4.9950,50.37562199,16.28176774,0.00000000,
13:20:21:824,-0.0582,-0.0678,-0.0005,-0.0003,-0.0000,-0.0002,4.9950,50.37562199,16.28176774,0.00000000,
13:20:21:866,-0.0582,-0.0678,-0.0005,-0.0003,-0.0000,-0.0002,4.9950,50.37562199,16.28176774,0.00000000,
13:20:21:878,-0.0582,-0.0678,-0.0005,-0.0002,-0.0000,-0.0002,4.9950,50.37562199,16.28176774,0.00000000,
13:20:21:892,-0.0667,-0.0638,-0.0018,-0.0002,-0.0000,-0.0002,4.9950,50.37562199,16.28176774,0.00000000,
13:20:21:934,-0.0667,-0.0638,-0.0018,-0.0002,-0.0000,-0.0002,4.9950,50.37562199,16.28176774,0.00000000,
13:20:21:947,-0.0667,-0.0638,-0.0018,0.0000,-0.0005,-0.0005,4.9950,50.37562199,16.28176774,0.00000000,
13:20:21:960,-0.0489,-0.0510,-0.0002,0.0000,-0.0005,-0.0005,4.9950,50.37562199,16.28176774,0.00000000,
13:20:22:000,-0.0489,-0.0510,-0.0002,0.0000,-0.0005,-0.0005,4.9950,50.37562199,16.28176774,0.00000000,
13:20:22:015,-0.0489,-0.0510,-0.0002,-0.0000,0.0002,-0.0002,4.9950,50.37562199,16.28176774,0.00000000,
13:20:22:028,-0.0403,-0.0462,-0.0013,-0.0000,0.0002,-0.0002,4.9950,50.37562199,16.28176774,0.00000000,
13:20:22:069,-0.0403,-0.0462,-0.0013,-0.0000,0.0002,-0.0002,4.9950,50.37562199,16.28176774,0.00000000,
13:20:22:081,-0.0403,-0.0462,-0.0013,-0.0003,-0.0003,-0.0003,4.9950,50.37562199,16.28176774,0.00000000,
13:20:22:096,-0.0427,-0.0425,0.0058,-0.0003,-0.0003,-0.0003,4.9950,50.37562199,16.28176774,0.00000000,
13:20:22:138,-0.0427,-0.0425,0.0058,-0.0003,-0.0003,-0.0003,4.9950,50.37562199,16.28176774,0.00000000,
13:20:22:150,-0.0427,-0.0425,0.0058,-0.0000,0.0000,-0.0002,4.9950,50.37562199,16.28176774,0.00000000,
13:20:22:162,-0.0397,-0.0374,-0.0015,-0.0000,0.0000,-0.0002,4.9950,50.37562199,16.28176774,0.00000000,
13:20:22:205,-0.0397,-0.0374,-0.0015,-0.0000,0.0000,-0.0002,4.9950,50.37562199,16.28176774,0.00000000,
13:20:22:218,-0.0397,-0.0374,-0.0015,-0.0002,-0.0000,-0.0003,4.9950,50.37562199,16.28176774,0.00000000,
13:20:22:230,-0.0326,-0.0366,-0.0014,-0.0002,-0.0000,-0.0003,4.9950,50.37562199,16.28176774,0.00000000,
13:20:22:272,-0.0326,-0.0366,-0.0014,-0.0002,-0.0000,-0.0003,4.9950,50.37562199,16.28176774,0.00000000,
13:20:22:285,-0.0326,-0.0366,-0.0014,-0.0003,-0.0002,-0.0003,4.9950,50.37562199,16.28176774,0.00000000,
13:20:22:299,-0.0274,-0.0286,0.0017,-0.0003,-0.0002,-0.0003,4.9950,50.37562199,16.28176774,0.00000000,
13:20:22:340,-0.0274,-0.0286,0.0017,-0.0003,-0.0002,-0.0003,4.9950,50.37562199,16.28176774,0.00000000,
13:20:22:353,-0.0274,-0.0286,0.0017,0.0005,-0.0002,-0.0003,4.9950,50.37562199,16.28176774,0.00000000,
13:20:22:365,-0.0277,-0.0303,-0.0043,0.0005,-0.0002,-0.0003,4.9950,50.37562199,16.28176774,0.00000000,
13:20:22:409,-0.0277,-0.0303,-0.0043,0.0005,-0.0002,-0.0003,4.9950,50.37562199,16.28176774,0.00000000,
13:20:22:421,-0.0277,-0.0303,-0.0043,-0.0002,-0.0000,0.0000,4.9950,50.37562199,16.28176774,0.00000000,
13:20:22:434,-0.0198,-0.0204,0.0020,-0.0002,-0.0000,0.0000,4.9950,50.37562199,16.28176774,0.00000000,
13:20:22:476,-0.0198,-0.0204,0.0020,-0.0002,-0.0000,0.0000,4.9950,50.37562199,16.28176774,0.00000000,
13:20:22:489,-0.0198,-0.0204,0.0020,-0.0005,-0.0002,-0.0002,4.9950,50.37562199,16.28176774,0.00000000,
13:20:22:502,-0.0160,-0.0201,0.0005,-0.0005,-0.0002,-0.0002,4.9950,50.37562199,16.28176774,0.00000000,
13:20:22:544,-0.0160,-0.0201,0.0005,-0.0005,-0.0002,-0.0002,4.9950,50.37562199,16.28176774,0.00000000,
13:20:22:560,-0.0160,-0.0201,0.0005,-0.0000,-0.0006,-0.0002,4.9950,50.37562199,16.28176774,0.00000000,
13:20:22:569,-0.0170,-0.0155,-0.0046,-0.0000,-0.0006,-0.0002,4.9950,50.37562199,16.28176774,0.00000000,
13:20:22:611,-0.0170,-0.0155,-0.0046,-0.0000,-0.0006,-0.0002,4.9950,50.37562199,16.28176774,0.00000000,
13:20:22:625,-0.0170,-0.0155,-0.0046,0.0000,-0.0005,-0.0002,4.9950,50.37562199,16.28176774,0.00000000,
13:20:22:636,-0.0158,-0.0165,0.0038,0.0000,-0.0005,-0.0002,4.9950,50.37562199,16.28176774,0.00000000,
13:20:22:679,-0.0158,-0.0165,0.0038,0.0000,-0.0005,-0.0002,4.9950,50.37562199,16.28176774,0.00000000,
13:20:22:691,-0.0158,-0.0165,0.0038,-0.0002,0.0006,-0.0002,4.9950,50.37562199,16.28176774,0.00000000,
13:20:22:705,-0.0127,-0.0145,0.0005,-0.0002,0.0006,-0.0002,4.9950,50.37562199,16.28176774,0.00000000,
13:20:22:747,-0.0127,-0.0145,0.0005,-0.0002,0.0006,-0.0002,4.9950,50.37562199,16.28176774,0.00000000,
13:20:22:760,-0.0127,-0.0145,0.0005,0.0002,0.0003,-0.0000,4.9950,50.37562199,16.28176774,0.00000000,
13:20:22:772,-0.0133,-0.0178,0.0010,0.0002,0.0003,-0.0000,4.9950,50.37562199,16.28176774,0.00000000,
13:20:22:815,-0.0133,-0.0178,0.0010,0.0002,0.0003,-0.0000,4.9950,50.37562199,16.28176774,0.00000000,
13:20:22:828,-0.0133,-0.0178,0.0010,0.0002,0.0003,-0.0002,4.9950,50.37562199,16.28176774,0.00000000,
13:20:22:841,-0.0128,-0.0121,-0.0007,0.0002,0.0003,-0.0002,4.9950,50.37562199,16.28176774,0.00000000,
13:20:22:882,-0.0128,-0.0121,-0.0007,0.0002,0.0003,-0.0002,4.9950,50.37562199,16.28176774,0.00000000,
13:20:22:896,-0.0128,-0.0121,-0.0007,0.0002,-0.0000,-0.0005,4.9950,50.37562199,16.28176774,0.00000000,
13:20:22:909,-0.0111,-0.0112,0.0004,0.0002,-0.0000,-0.0005,4.9950,50.37562199,16.28176774,0.00000000,
13:20:22:951,-0.0111,-0.0112,0.0004,0.0002,-0.0000,-0.0005,4.9950,50.37562199,16.28176774,0.00000000,
13:20:22:962,-0.0111,-0.0112,0.0004,-0.0002,-0.0005,-0.0003,4.9950,50.37562199,16.28176774,0.00000000,
13:20:22:975,-0.0090,-0.0117,-0.0036,-0.0002,-0.0005,-0.0003,4.9950,50.37562199,16.28176774,0.00000000,
13:20:23:018,-0.0090,-0.0117,-0.0036,-0.0002,-0.0005,-0.0003,4.9950,50.37562199,16.28176774,0.00000000,
13:20:23:031,-0.0090,-0.0117,-0.0036,-0.0005,-0.0002,-0.0000,4.9950,50.37562199,16.28176774,0.00000000,
13:20:23:043,-0.0030,-0.0066,-0.0000,-0.0005,-0.0002,-0.0000,4.9950,50.37562199,16.28176774,0.00000000,
13:20:23:086,-0.0030,-0.0066,-0.0000,-0.0005,-0.0002,-0.0000,4.9950,50.37562199,16.28176774,0.00000000,
13:20:23:099,-0.0030,-0.0066,-0.0000,0.0002,0.0000,-0.0002,4.9950,50.37562199,16.28176774,0.00000000,
13:20:23:112,-0.0058,-0.0077,0.0021,0.0002,0.0000,-0.0002,4.9950,50.37562199,16.28176774,0.00000000,
13:20:23:155,-0.0058,-0.0077,0.0021,0.0002,0.0000,-0.0002,4.9950,50.37562199,16.28176774,0.00000000,
13:20:23:166,-0.0058,-0.0077,0.0021,-0.0002,-0.0002,-0.0003,4.9950,50.37562199,16.28176774,0.00000000,
13:20:23:179,-0.0093,-0.0066,-0.0045,-0.0002,-0.0002,-0.0003,4.9950,50.37562199,16.28176774,0.00000000,
13:20:23:222,-0.0093,-0.0066,-0.0045,-0.0002,-0.0002,-0.0003,4.9950,50.37562199,16.28176774,0.00000000,
13:20:23:237,-0.0093,-0.0066,-0.0045,0.0003,0.0003,-0.0005,4.9950,50.37562199,16.28176774,0.00000000,
13:20:23:247,-0.0037,-0.0072,0.0010,0.0003,0.0003,-0.0005,4.9950,50.37562199,16.28176774,0.00000000,
13:20:23:290,-0.0037,-0.0072,0.0010,0.0003,0.0003,-0.0005,4.9950,50.37562199,16.28176774,0.00000000,
13:20:23:302,-0.0037,-0.0072,0.0010,-0.0003,0.0005,-0.0003,4.9950,50.37562199,16.28176774,0.00000000,
13:20:23:316,-0.0036,-0.0081,-0.0015,-0.0003,0.0005,-0.0003,4.9950,50.37562199,16.28176774,0.00000000,
13:20:23:357,-0.0036,-0.0081,-0.0015,-0.0003,0.0005,-0.0003,4.9950,50.37562199,16.28176774,0.00000000,
13:20:23:371,-0.0036,-0.0081,-0.0015,-0.0002,-0.0006,-0.0005,4.9950,50.37562199,16.28176774,0.00000000,
13:20:23:383,-0.0044,-0.0022,0.0006,-0.0002,-0.0006,-0.0005,4.9950,50.37562199,16.28176774,0.00000000,
13:20:23:425,-0.0044,-0.0022,0.0006,-0.0002,-0.0006,-0.0005,4.9950,50.37562199,16.28176774,0.00000000,
13:20:23:437,-0.0044,-0.0022,0.0006,-0.0003,0.0002,-0.0003,4.9950,50.37562199,16.28176774,0.00000000,
13:20:23:451,-0.0037,-0.0042,-0.0003,-0.0003,0.0002,-0.0003,4.9950,50.37562199,16.28176774,0.00000000,
13:20:23:493,-0.0037,-0.0042,-0.0003,-0.0003,0.0002,-0.0003,4.9950,50.37562199,16.28176774,0.00000000,
13:20:23:506,-0.0037,-0.0042,-0.0003,-0.0003,0.0003,-0.0003,4.9950,50.37562199,16.28176774,0.00000000,
13:20:23:518,0.0016,-0.0060,0.0048,-0.0003,0.0003,-0.0003,4.9950,50.37562199,16.28176774,0.00000000,
13:20:23:561,0.0016,-0.0060,0.0048,-0.0003,0.0003,-0.0003,4.9950,50.37562199,16.28176774,0.00000000,
13:20:23:573,0.0016,-0.0060,0.0048,-0.0002,-0.0003,-0.0002,4.9950,50.37562199,16.28176774,0.00000000,
13:20:23:586,-0.0058,-0.0068,-0.0035,-0.0002,-0.0003,-0.0002,4.9950,50.37562199,16.28176774,0.00000000,
13:20:23:629,-0.0058,-0.0068,-0.0035,-0.0002,-0.0003,-0.0002,4.9950,50.37562199,16.28176774,0.00000000,
13:20:23:641,-0.0058,-0.0068,-0.0035,-0.0000,-0.0002,-0.0003,4.9950,50.37562199,16.28176774,0.00000000,
13:20:23:658,-0.0016,0.0003,0.0012,-0.0000,-0.0002,-0.0003,4.9950,50.37562199,16.28176774,0.00000000,
13:20:23:697,-0.0016,0.0003,0.0012,-0.0000,-0.0002,-0.0003,4.9950,50.37562199,16.28176774,0.00000000,
13:20:23:710,-0.0016,0.0003,0.0012,-0.0002,0.0003,-0.0002,4.9950,50.37562199,16.28176774,0.00000000,
13:20:23:722,-0.0068,-0.0009,0.0008,-0.0002,0.0003,-0.0002,4.9950,50.37562199,16.28176774,0.00000000,
13:20:23:764,-0.0068,-0.0009,0.0008,-0.0002,0.0003,-0.0002,4.9950,50.37562199,16.28176774,0.00000000,
13:20:23:777,-0.0068,-0.0009,0.0008,-0.0000,-0.0002,-0.0003,4.9950,50.37562199,16.28176774,0.00000000,
13:20:23:790,-0.0011,-0.0024,0.0023,-0.0000,-0.0002,-0.0003,4.9950,50.37562199,16.28176774,0.00000000,
13:20:23:832,-0.0011,-0.0024,0.0023,-0.0000,-0.0002,-0.0003,4.9950,50.37562199,16.28176774,0.00000000,
13:20:23:844,-0.0011,-0.0024,0.0023,-0.0002,-0.0002,-0.0003,4.9950,50.37562199,16.28176774,0.00000000,
13:20:23:859,-0.0005,-0.0030,0.0020,-0.0002,-0.0002,-0.0003,4.9950,50.37562199,16.28176774,0.00000000,
13:20:23:900,-0.0005,-0.0030,0.0020,-0.0002,-0.0002,-0.0003,4.9950,50.37562199,16.28176774,0.00000000,
13:20:23:912,-0.0005,-0.0030,0.0020,-0.0000,-0.0002,-0.0002,4.9950,50.37562199,16.28176774,0.00000000,
13:20:23:924,0.0007,-0.0019,0.0002,-0.0000,-0.0002,-0.0002,4.9950,50.37562199,16.28176774,0.00000000,
13:20:23:968,0.0007,-0.0019,0.0002,-0.0000,-0.0002,-0.0002,4.9950,50.37562199,16.28176774,0.00000000,
13:20:23:980,0.0007,-0.0019,0.0002,0.0002,-0.0002,-0.0002,4.9950,50.37562199,16.28176774,0.00000000,
13:20:23:992,-0.0025,-0.0018,-0.0001,0.0002,-0.0002,-0.0002,4.9950,50.37562199,16.28176774,0.00000000,
13:20:24:036,-0.0025,-0.0018,-0.0001,0.0002,-0.0002,-0.0002,4.9950,50.37562199,16.28176774,0.00000000,
13:20:24:048,-0.0025,-0.0018,-0.0001,0.0003,0.0002,-0.0003,4.9950,50.37562199,16.28176774,0.00000000,
13:20:24:061,-0.0018,-0.0009,-0.0019,0.0003,0.0002,-0.0003,4.9950,50.37562199,16.28176774,0.00000000,
13:20:24:103,-0.0018,-0.0009,-0.0019,0.0003,0.0002,-0.0003,4.9950,50.37562199,16.28176774,0.00000000,
13:20:24:116,-0.0018,-0.0009,-0.0019,-0.0000,0.0000,-0.0003,4.9950,50.37562199,16.28176774,0.00000000,
13:20:24:128,-0.0003,-0.0042,-0.0007,-0.0000,0.0000,-0.0003,4.9950,50.37562199,16.28176774,0.00000000,
13:20:24:171,-0.0003,-0.0042,-0.0007,-0.0000,0.0000,-0.0003,4.9950,50.37562199,16.28176774,0.00000000,
13:20:24:184,-0.0003,-0.0042,-0.0007,-0.0003,0.0002,-0.0002,4.9950,50.37562199,16.28176774,0.00000000,
13:20:24:196,-0.0033,-0.0005,0.0026,-0.0003,0.0002,-0.0002,4.9950,50.37562199,16.28176774,0.00000000,
13:20:24:238,-0.0033,-0.0005,0.0026,-0.0003,0.0002,-0.0002,4.9950,50.37562199,16.28176774,0.00000000,
13:20:24:251,-0.0033,-0.0005,0.0026,-0.0002,0.0005,-0.0000,4.9950,50.37562199,16.28176774,0.00000000,
13:20:24:265,-0.0011,-0.0007,-0.0030,-0.0002,0.0005,-0.0000,4.9950,50.37562199,16.28176774,0.00000000,
13:20:24:307,-0.0011,-0.0007,-0.0030,-0.0002,0.0005,-0.0000,4.9950,50.37562199,16.28176774,0.00000000,
13:20:24:319,-0.0011,-0.0007,-0.0030,0.0002,0.0002,0.0003,4.9950,50.37562199,16.28176774,0.00000000,
13:20:24:332,0.0001,-0.0008,0.0003,0.0002,0.0002,0.0003,4.9950,50.37562199,16.28176774,0.00000000,
13:20:24:376,0.0001,-0.0008,0.0003,0.0002,0.0002,0.0003,4.9950,50.37562199,16.28176774,0.00000000,
13:20:24:387,0.0001,-0.0008,0.0003,-0.0000,0.0002,-0.0003,4.9950,50.37562199,16.28176774,0.00000000,
13:20:24:399,-0.0024,-0.0063,-0.0008,-0.0000,0.0002,-0.0003,4.9950,50.37562199,16.28176774,0.00000000,
13:20:24:442,-0.0024,-0.0063,-0.0008,-0.0000,0.0002,-0.0003,4.9950,50.37562199,16.28176774,0.00000000,
13:20:24:456,-0.0024,-0.0063,-0.0008,0.0003,-0.0000,-0.0002,4.9950,50.37562199,16.28176774,0.00000000,
13:20:24:468,0.0030,0.0048,0.0043,0.0003,-0.0000,-0.0002,4.9950,50.37562199,16.28176774,0.00000000,
13:20:24:510,0.0030,0.0048,0.0043,0.0003,-0.0000,-0.0002,4.9950,50.37562199,16.28176774,0.00000000,
13:20:24:523,0.0030,0.0048,0.0043,-0.0003,-0.0002,-0.0005,4.9950,50.37562199,16.28176774,0.00000000,
13:20:24:536,-0.0030,-0.0041,-0.0015,-0.0003,-0.0002,-0.0005,4.9950,50.37562199,16.28176774,0.00000000,
13:20:24:582,-0.0030,-0.0041,-0.0015,-0.0003,-0.0002,-0.0005,4.9950,50.37562199,16.28176774,0.00000000,
13:20:24:591,-0.0030,-0.0041,-0.0015,-0.0008,-0.0000,-0.0003,4.9950,50.37562199,16.28176774,0.00000000,
13:20:24:603,0.0015,-0.0034,-0.0013,-0.0008,-0.0000,-0.0003,4.9950,50.37562199,16.28176774,0.00000000,
13:20:24:646,0.0015,-0.0034,-0.0013,-0.0008,-0.0000,-0.0003,4.9950,50.37562199,16.28176774,0.00000000,
13:20:24:658,0.0015,-0.0034,-0.0013,0.0002,-0.0002,-0.0003,4.9950,50.37562199,16.28176774,0.00000000,
13:20:24:673,-0.0009,0.0014,-0.0014,0.0002,-0.0002,-0.0003,4.9950,50.37562199,16.28176774,0.00000000,
13:20:24:713,-0.0009,0.0014,-0.0014,0.0002,-0.0002,-0.0003,4.9950,50.37562199,16.28176774,0.00000000,
13:20:24:726,-0.0009,0.0014,-0.0014,-0.0002,0.0002,-0.0003,4.9950,50.37562199,16.28176774,0.00000000,
13:20:24:740,-0.0014,-0.0019,0.0040,-0.0002,0.0002,-0.0003,4.9950,50.37562199,16.28176774,0.00000000,
13:20:24:781,-0.0014,-0.0019,0.0040,-0.0002,0.0002,-0.0003,4.9950,50.37562199,16.28176774,0.00000000,
13:20:24:795,-0.0014,-0.0019,0.0040,-0.0003,-0.0000,-0.0002,4.9950,50.37562199,16.28176774,0.00000000,
13:20:24:808,-0.0014,-0.0019,0.0040,-0.0003,-0.0000,-0.0002,4.9950,50.37562199,16.28176774,0.00000000,
13:20:24:811,0.0001,0.0012,-0.0009,-0.0003,-0.0000,-0.0002,4.9950,50.37562199,16.28176774,0.00000000,
13:20:24:849,0.0001,0.0012,-0.0009,-0.0003,-0.0000,-0.0002,4.9950,50.37562199,16.28176774,0.00000000,
13:20:24:861,0.0001,0.0012,-0.0009,-0.0002,-0.0000,-0.0003,4.9950,50.37562199,16.28176774,0.00000000,
13:20:24:875,-0.0027,-0.0032,-0.0008,-0.0002,-0.0000,-0.0003,4.9950,50.37562199,16.28176774,0.00000000,
13:20:24:916,-0.0027,-0.0032,-0.0008,-0.0002,-0.0000,-0.0003,4.9950,50.37562199,16.28176774,0.00000000,
13:20:24:929,-0.0027,-0.0032,-0.0008,0.0002,-0.0002,-0.0003,4.9950,50.37562199,16.28176774,0.00000000,
13:20:24:942,0.0063,-0.0024,0.0003,0.0002,-0.0002,-0.0003,4.9950,50.37562199,16.28176774,0.00000000,
13:20:24:984,0.0063,-0.0024,0.0003,0.0002,-0.0002,-0.0003,4.9950,50.37562199,16.28176774,0.00000000,
13:20:24:996,0.0063,-0.0024,0.0003,-0.0005,0.0002,-0.0002,4.9950,50.37562199,16.28176774,0.00000000,
13:20:25:009,-0.0048,-0.0012,0.0005,-0.0005,0.0002,-0.0002,4.9950,50.37562199,16.28176774,0.00000000,
13:20:25:052,-0.0048,-0.0012,0.0005,-0.0005,0.0002,-0.0002,4.9950,50.37562199,16.28176774,0.00000000,
13:20:25:065,-0.0048,-0.0012,0.0005,-0.0002,-0.0003,-0.0003,4.9950,50.37562199,16.28176774,0.00000000,
13:20:25:077,0.0016,0.0015,-0.0019,-0.0002,-0.0003,-0.0003,4.9950,50.37562199,16.28176774,0.00000000,
13:20:25:120,0.0016,0.0015,-0.0019,-0.0002,-0.0003,-0.0003,4.9950,50.37562199,16.28176774,0.00000000,
13:20:25:133,0.0016,0.0015,-0.0019,-0.0002,-0.0002,-0.0002,4.9950,50.37562199,16.28176774,0.00000000,
13:20:25:146,0.0019,-0.0011,-0.0033,-0.0002,-0.0002,-0.0002,4.9950,50.37562199,16.28176774,0.00000000,
13:20:25:188,0.0019,-0.0011,-0.0033,-0.0002,-0.0002,-0.0002,4.9950,50.37562199,16.28176774,0.00000000,
13:20:25:200,0.0019,-0.0011,-0.0033,-0.0002,0.0002,0.0002,4.9950,50.37562199,16.28176774,0.00000000,
13:20:25:213,0.0007,-0.0008,-0.0003,-0.0002,0.0002,0.0002,4.9950,50.37562199,16.28176774,0.00000000,
13:20:25:256,0.0007,-0.0008,-0.0003,-0.0002,0.0002,0.0002,4.9950,50.37562199,16.28176774,0.00000000,
13:20:25:268,0.0007,-0.0008,-0.0003,0.0002,-0.0000,-0.0002,4.9950,50.37562199,16.28176774,0.00000000,
13:20:25:281,-0.0007,0.0012,0.0006,0.0002,-0.0000,-0.0002,4.9950,50.37562199,16.28176774,0.00000000,
13:20:25:323,-0.0007,0.0012,0.0006,0.0002,-0.0000,-0.0002,4.9950,50.37562199,16.28176774,0.00000000,
13:20:25:338,-0.0007,0.0012,0.0006,-0.0002,-0.0003,0.0000,4.9950,50.37562199,16.28176774,0.00000000,
13:20:25:349,-0.0015,0.0024,0.0005,-0.0002,-0.0003,0.0000,4.9950,50.37562199,16.28176774,0.00000000,
13:20:25:391,-0.0015,0.0024,0.0005,-0.0002,-0.0003,0.0000,4.9950,50.37562199,16.28176774,0.00000000,
13:20:25:404,-0.0015,0.0024,0.0005,0.0002,-0.0006,-0.0003,4.9950,50.37562199,16.28176774,0.00000000,
13:20:25:417,-0.0024,-0.0042,-0.0012,0.0002,-0.0006,-0.0003,4.9950,50.37562199,16.28176774,0.00000000,
13:20:25:459,-0.0024,-0.0042,-0.0012,0.0002,-0.0006,-0.0003,4.9950,50.37562199,16.28176774,0.00000000,
13:20:25:472,-0.0024,-0.0042,-0.0012,-0.0002,-0.0002,0.0000,4.9950,50.37562199,16.28176774,0.00000000,
13:20:25:484,-0.0037,-0.0010,-0.0013,-0.0002,-0.0002,0.0000,4.9950,50.37562199,16.28176774,0.00000000,
13:20:25:527,-0.0037,-0.0010,-0.0013,-0.0002,-0.0002,0.0000,4.9950,50.37562199,16.28176774,0.00000000,
13:20:25:540,-0.0037,-0.0010,-0.0013,-0.0000,-0.0002,-0.0002,4.9950,50.37562199,16.28176774,0.00000000,
13:20:25:553,0.0019,-0.0026,-0.0004,-0.0000,-0.0002,-0.0002,4.9950,50.37562199,16.28176774,0.00000000,
13:20:25:597,0.0019,-0.0026,-0.0004,-0.0000,-0.0002,-0.0002,4.9950,50.37562199,16.28176774,0.00000000,
13:20:25:607,0.0019,-0.0026,-0.0004,-0.0002,0.0005,-0.0005,4.9950,50.37562199,16.28176774,0.00000000,
13:20:25:621,0.0037,0.0001,-0.0006,-0.0002,0.0005,-0.0005,4.9950,50.37562199,16.28176774,0.00000000,
13:20:25:663,0.0037,0.0001,-0.0006,-0.0002,0.0005,-0.0005,4.9950,50.37562199,16.28176774,0.00000000,
13:20:25:676,0.0037,0.0001,-0.0006,-0.0002,0.0002,-0.0002,4.9950,50.37562199,16.28176774,0.00000000,
13:20:25:689,-0.0002,-0.0007,-0.0034,-0.0002,0.0002,-0.0002,4.9950,50.37562199,16.28176774,0.00000000,
13:20:25:730,-0.0002,-0.0007,-0.0034,-0.0002,0.0002,-0.0002,4.9950,50.37562199,16.28176774,0.00000000,
13:20:25:742,-0.0002,-0.0007,-0.0034,0.0003,-0.0002,-0.0000,4.9950,50.37562199,16.28176774,0.00000000,
13:20:25:755,0.0015,0.0031,0.0033,0.0003,-0.0002,-0.0000,4.9950,50.37562199,16.28176774,0.00000000,
13:20:25:797,0.0015,0.0031,0.0033,0.0003,-0.0002,-0.0000,4.9950,50.37562199,16.28176774,0.00000000,
13:20:25:811,0.0015,0.0031,0.0033,-0.0003,-0.0000,-0.0003,4.9950,50.37562199,16.28176774,0.00000000,
13:20:25:825,0.0014,-0.0011,-0.0010,-0.0003,-0.0000,-0.0003,4.9950,50.37562199,16.28176774,0.00000000,
13:20:25:866,0.0014,-0.0011,-0.0010,-0.0003,-0.0000,-0.0003,4.9950,50.37562199,16.28176774,0.00000000,
13:20:25:878,0.0014,-0.0011,-0.0010,0.0002,-0.0002,-0.0002,4.9950,50.37562199,16.28176774,0.00000000,
13:20:25:891,-0.0005,-0.0059,0.0015,0.0002,-0.0002,-0.0002,4.9950,50.37562199,16.28176774,0.00000000,
13:20:25:935,-0.0005,-0.0059,0.0015,0.0002,-0.0002,-0.0002,4.9950,50.37562199,16.28176774,0.00000000,
13:20:25:947,-0.0005,-0.0059,0.0015,0.0002,0.0003,-0.0002,4.9950,50.37562199,16.28176774,0.00000000,
13:20:25:958,-0.0019,-0.0017,-0.0000,0.0002,0.0003,-0.0002,4.9950,50.37562199,16.28176774,0.00000000,
13:20:26:001,-0.0019,-0.0017,-0.0000,0.0002,0.0003,-0.0002,4.9950,50.37562199,16.28176774,0.00000000,
13:20:26:015,-0.0019,-0.0017,-0.0000,-0.0000,-0.0000,-0.0002,4.9950,50.37562199,16.28176774,0.00000000,
13:20:26:027,0.0012,-0.0005,0.0010,-0.0000,-0.0000,-0.0002,4.9950,50.37562199,16.28176774,0.00000000,
13:20:26:069,0.0012,-0.0005,0.0010,-0.0000,-0.0000,-0.0002,4.9950,50.37562199,16.28176774,0.00000000,
13:20:26:081,0.0012,-0.0005,0.0010,-0.0003,-0.0002,-0.0002,4.9950,50.37562199,16.28176774,0.00000000,
13:20:26:096,0.0019,0.0034,0.0036,-0.0003,-0.0002,-0.0002,4.9950,50.37562199,16.28176774,0.00000000,
13:20:26:137,0.0019,0.0034,0.0036,-0.0003,-0.0002,-0.0002,4.9950,50.37562199,16.28176774,0.00000000,
13:20:26:150,0.0019,0.0034,0.0036,0.0002,-0.0002,-0.0005,4.9950,50.37562199,16.28176774,0.00000000,
13:20:26:162,0.0011,0.0027,-0.0048,0.0002,-0.0002,-0.0005,4.9950,50.37562199,16.28176774,0.00000000,
13:20:26:204,0.0011,0.0027,-0.0048,0.0002,-0.0002,-0.0005,4.9950,50.37562199,16.28176774,0.00000000,
13:20:26:219,0.0011,0.0027,-0.0048,-0.0002,-0.0002,-0.0003,4.9950,50.37562199,16.28176774,0.00000000,
13:20:26:231,0.0012,-0.0013,-0.0021,-0.0002,-0.0002,-0.0003,4.9950,50.37562199,16.28176774,0.00000000,
13:20:26:272,0.0012,-0.0013,-0.0021,-0.0002,-0.0002,-0.0003,4.9950,50.37562199,16.28176774,0.00000000,
13:20:26:284,0.0012,-0.0013,-0.0021,-0.0000,-0.0002,-0.0002,4.9950,50.37562199,16.28176774,0.00000000,
13:20:26:298,-0.0014,0.0002,0.0040,-0.0000,-0.0002,-0.0002,4.9950,50.37562199,16.28176774,0.00000000,
13:20:26:341,-0.0014,0.0002,0.0040,-0.0000,-0.0002,-0.0002,4.9950,50.37562199,16.28176774,0.00000000,
13:20:26:354,-0.0014,0.0002,0.0040,-0.0002,-0.0000,-0.0003,4.9950,50.37562199,16.28176774,0.00000000,
13:20:26:365,-0.0002,-0.0020,0.0033,-0.0002,-0.0000,-0.0003,4.9950,50.37562199,16.28176774,0.00000000,
13:20:26:409,-0.0002,-0.0020,0.0033,-0.0002,-0.0000,-0.0003,4.9950,50.37562199,16.28176774,0.00000000,
13:20:26:421,-0.0002,-0.0020,0.0033,0.0002,0.0002,0.0003,4.9950,50.37562199,16.28176774,0.00000000,
13:20:26:436,-0.0014,0.0030,-0.0014,0.0002,0.0002,0.0003,4.9950,50.37562199,16.28176774,0.00000000,
13:20:26:476,-0.0014,0.0030,-0.0014,0.0002,0.0002,0.0003,4.9950,50.37562199,16.28176774,0.00000000,
13:20:26:489,-0.0014,0.0030,-0.0014,-0.0000,-0.0002,0.0000,4.9950,50.37562199,16.28176774,0.00000000,
13:20:26:502,0.0016,-0.0038,0.0049,-0.0000,-0.0002,0.0000,4.9950,50.37562199,16.28176774,0.00000000,
13:20:26:544,0.0016,-0.0038,0.0049,-0.0000,-0.0002,0.0000,4.9950,50.37562199,16.28176774,0.00000000,
13:20:26:556,0.0016,-0.0038,0.0049,-0.0002,0.0002,-0.0002,4.9950,50.37562199,16.28176774,0.00000000,
13:20:26:569,0.0000,0.0016,-0.0002,-0.0002,0.0002,-0.0002,4.9950,50.37562199,16.28176774,0.00000000,
13:20:26:611,0.0000,0.0016,-0.0002,-0.0002,0.0002,-0.0002,4.9950,50.37562199,16.28176774,0.00000000,
13:20:26:625,0.0000,0.0016,-0.0002,-0.0002,-0.0000,-0.0000,4.9950,50.37562199,16.28176774,0.00000000,
13:20:26:637,-0.0013,-0.0016,-0.0004,-0.0002,-0.0000,-0.0000,4.9950,50.37562199,16.28176774,0.00000000,
13:20:26:679,-0.0013,-0.0016,-0.0004,-0.0002,-0.0000,-0.0000,4.9950,50.37562199,16.28176774,0.00000000,
13:20:26:692,-0.0013,-0.0016,-0.0004,-0.0003,-0.0000,-0.0003,4.9950,50.37562199,16.28176774,0.00000000,
13:20:26:705,0.0025,-0.0000,-0.0006,-0.0003,-0.0000,-0.0003,4.9950,50.37562199,16.28176774,0.00000000,
13:20:26:747,0.0025,-0.0000,-0.0006,-0.0003,-0.0000,-0.0003,4.9950,50.37562199,16.28176774,0.00000000,
13:20:26:759,0.0025,-0.0000,-0.0006,-0.0003,-0.0000,-0.0003,4.9950,50.37562199,16.28176774,0.00000000,
13:20:26:772,-0.0007,-0.0022,0.0037,-0.0003,-0.0000,-0.0003,4.9950,50.37562199,16.28176774,0.00000000,
13:20:26:815,-0.0007,-0.0022,0.0037,-0.0003,-0.0000,-0.0003,4.9950,50.37562199,16.28176774,0.00000000,
13:20:26:828,-0.0007,-0.0022,0.0037,0.0005,-0.0002,-0.0003,4.9950,50.37562199,16.28176774,0.00000000,
13:20:26:840,0.0002,-0.0029,0.0004,0.0005,-0.0002,-0.0003,4.9950,50.37562199,16.28176774,0.00000000,
13:20:26:883,0.0002,-0.0029,0.0004,0.0005,-0.0002,-0.0003,4.9950,50.37562199,16.28176774,0.00000000,
13:20:26:895,0.0002,-0.0029,0.0004,-0.0002,-0.0002,-0.0002,4.9950,50.37562199,16.28176774,0.00000000,
13:20:26:908,0.0031,0.0016,-0.0005,-0.0002,-0.0002,-0.0002,4.9950,50.37562199,16.28176774,0.00000000,
13:20:26:951,0.0031,0.0016,-0.0005,-0.0002,-0.0002,-0.0002,4.9950,50.37562199,16.28176774,0.00000000,
13:20:26:963,0.0031,0.0016,-0.0005,-0.0000,0.0002,-0.0003,4.9950,50.37562199,16.28176774,0.00000000,
13:20:26:976,-0.0029,-0.0041,-0.0026,-0.0000,0.0002,-0.0003,4.9950,50.37562199,16.28176774,0.00000000,
13:20:27:018,-0.0029,-0.0041,-0.0026,-0.0000,0.0002,-0.0003,4.9950,50.37562199,16.28176774,0.00000000,
13:20:27:031,-0.0029,-0.0041,-0.0026,-0.0002,-0.0003,-0.0003,4.9950,50.37562199,16.28176774,0.00000000,
13:20:27:044,0.0064,0.0005,0.0025,-0.0002,-0.0003,-0.0003,4.9950,50.37562199,16.28176774,0.00000000,
13:20:27:086,0.0064,0.0005,0.0025,-0.0002,-0.0003,-0.0003,4.9950,50.37562199,16.28176774,0.00000000,
13:20:27:099,0.0064,0.0005,0.0025,-0.0002,0.0000,-0.0002,4.9950,50.37562199,16.28176774,0.00000000,
13:20:27:112,0.0025,0.0007,-0.0004,-0.0002,0.0000,-0.0002,4.9950,50.37562199,16.28176774,0.00000000,
13:20:27:155,0.0025,0.0007,-0.0004,-0.0002,0.0000,-0.0002,4.9950,50.37562199,16.28176774,0.00000000,
13:20:27:166,0.0025,0.0007,-0.0004,-0.0002,-0.0003,-0.0005,4.9950,50.37562199,16.28176774,0.00000000,
13:20:27:180,0.0005,-0.0011,0.0004,-0.0002,-0.0003,-0.0005,4.9950,50.37562199,16.28176774,0.00000000,
13:20:27:222,0.0005,-0.0011,0.0004,-0.0002,-0.0003,-0.0005,4.9950,50.37562199,16.28176774,0.00000000,
13:20:27:236,0.0005,-0.0011,0.0004,-0.0000,0.0002,-0.0005,4.9950,50.37562199,16.28176774,0.00000000,
13:20:27:247,0.0017,0.0041,-0.0036,-0.0000,0.0002,-0.0005,4.9950,50.37562199,16.28176774,0.00000000,
13:20:27:290,0.0017,0.0041,-0.0036,-0.0000,0.0002,-0.0005,4.9950,50.37562199,16.28176774,0.00000000,
13:20:27:303,0.0017,0.0041,-0.0036,0.0005,0.0002,-0.0003,4.9950,50.37562199,16.28176774,0.00000000,
13:20:27:316,-0.0021,0.0012,-0.0029,0.0005,0.0002,-0.0003,4.9950,50.37562199,16.28176774,0.00000000,
13:20:27:357,-0.0021,0.0012,-0.0029,0.0005,0.0002,-0.0003,4.9950,50.37562199,16.28176774,0.00000000,
13:20:27:370,-0.0021,0.0012,-0.0029,-0.0003,0.0000,-0.0003,4.9950,50.37562199,16.28176774,0.00000000,
13:20:27:384,0.0019,-0.0039,-0.0013,-0.0003,0.0000,-0.0003,4.9950,50.37562199,16.28176774,0.00000000,
13:20:27:425,0.0019,-0.0039,-0.0013,-0.0003,0.0000,-0.0003,4.9950,50.37562199,16.28176774,0.00000000,
13:20:27:437,0.0019,-0.0039,-0.0013,-0.0002,0.0002,-0.0003,4.9950,50.37562199,16.28176774,0.00000000,
13:20:27:452,0.0025,-0.0003,-0.0011,-0.0002,0.0002,-0.0003,4.9950,50.37562199,16.28176774,0.00000000,
13:20:27:493,0.0025,-0.0003,-0.0011,-0.0002,0.0002,-0.0003,4.9950,50.37562199,16.28176774,0.00000000,
13:20:27:506,0.0025,-0.0003,-0.0011,-0.0000,-0.0002,-0.0000,4.9950,50.37562199,16.28176774,0.00000000,
13:20:27:518,-0.0004,-0.0035,-0.0023,-0.0000,-0.0002,-0.0000,4.9950,50.37562199,16.28176774,0.00000000,
13:20:27:560,-0.0004,-0.0035,-0.0023,-0.0000,-0.0002,-0.0000,4.9950,50.37562199,16.28176774,0.00000000,
13:20:27:575,-0.0004,-0.0035,-0.0023,-0.0000,-0.0000,-0.0003,4.9950,50.37562199,16.28176774,0.00000000,
13:20:27:587,-0.0027,-0.0009,-0.0021,-0.0000,-0.0000,-0.0003,4.9950,50.37562199,16.28176774,0.00000000,
13:20:27:629,-0.0027,-0.0009,-0.0021,-0.0000,-0.0000,-0.0003,4.9950,50.37562199,16.28176774,0.00000000,
13:20:27:641,-0.0027,-0.0009,-0.0021,-0.0003,0.0002,-0.0003,4.9950,50.37562199,16.28176774,0.00000000,
13:20:27:655,0.0031,0.0015,-0.0008,-0.0003,0.0002,-0.0003,4.9950,50.37562199,16.28176774,0.00000000,
13:20:27:697,0.0031,0.0015,-0.0008,-0.0003,0.0002,-0.0003,4.9950,50.37562199,16.28176774,0.00000000,
13:20:27:709,0.0031,0.0015,-0.0008,-0.0002,0.0002,-0.0002,4.9950,50.37562199,16.28176774,0.00000000,
13:20:27:722,-0.0018,-0.0008,0.0012,-0.0002,0.0002,-0.0002,4.9950,50.37562199,16.28176774,0.00000000,
13:20:27:764,-0.0018,-0.0008,0.0012,-0.0002,0.0002,-0.0002,4.9950,50.37562199,16.28176774,0.00000000,
13:20:27:777,-0.0018,-0.0008,0.0012,-0.0002,0.0002,-0.0003,4.9950,50.37562199,16.28176774,0.00000000,
13:20:27:790,-0.0014,-0.0021,-0.0016,-0.0002,0.0002,-0.0003,4.9950,50.37562199,16.28176774,0.00000000,
13:20:27:832,-0.0014,-0.0021,-0.0016,-0.0002,0.0002,-0.0003,4.9950,50.37562199,16.28176774,0.00000000,
13:20:27:844,-0.0014,-0.0021,-0.0016,-0.0002,-0.0003,-0.0002,4.9950,50.37562199,16.28176774,0.00000000,
13:20:27:858,0.0002,-0.0018,-0.0007,-0.0002,-0.0003,-0.0002,4.9950,50.37562199,16.28176774,0.00000000,
13:20:27:900,0.0002,-0.0018,-0.0007,-0.0002,-0.0003,-0.0002,4.9950,50.37562199,16.28176774,0.00000000,
13:20:27:912,0.0002,-0.0018,-0.0007,-0.0002,-0.0002,-0.0003,4.9950,50.37562199,16.28176774,0.00000000,
13:20:27:925,-0.0024,0.0039,0.0023,-0.0002,-0.0002,-0.0003,4.9950,50.37562199,16.28176774,0.00000000,
13:20:27:967,-0.0024,0.0039,0.0023,-0.0002,-0.0002,-0.0003,4.9950,50.37562199,16.28176774,0.00000000,
13:20:27:980,-0.0024,0.0039,0.0023,-0.0002,-0.0002,-0.0003,4.9950,50.37562199,16.28176774,0.00000000,
13:20:27:992,0.0023,0.0029,0.0018,-0.0002,-0.0002,-0.0003,4.9950,50.37562199,16.28176774,0.00000000,
13:20:28:036,0.0023,0.0029,0.0018,-0.0002,-0.0002,-0.0003,4.9950,50.37562199,16.28176774,0.00000000,
13:20:28:047,0.0023,0.0029,0.0018,0.0000,-0.0003,0.0000,4.9950,50.37562199,16.28176774,0.00000000,
13:20:28:061,-0.0038,-0.0043,-0.0010,0.0000,-0.0003,0.0000,4.9950,50.37562199,16.28176774,0.00000000,
13:20:28:104,-0.0038,-0.0043,-0.0010,0.0000,-0.0003,0.0000,4.9950,50.37562199,16.28176774,0.00000000,
13:20:28:116,-0.0038,-0.0043,-0.0010,-0.0000,-0.0002,-0.0003,4.9950,50.37562199,16.28176774,0.00000000,
13:20:28:128,-0.0070,0.0001,-0.0009,-0.0000,-0.0002,-0.0003,4.9950,50.37562199,16.28176774,0.00000000,
13:20:28:171,-0.0070,0.0001,-0.0009,-0.0000,-0.0002,-0.0003,4.9950,50.37562199,16.28176774,0.00000000,
13:20:28:186,-0.0070,0.0001,-0.0009,-0.0002,0.0002,-0.0000,4.9950,50.37562199,16.28176774,0.00000000,
13:20:28:197,0.0039,-0.0023,0.0018,-0.0002,0.0002,-0.0000,4.9950,50.37562199,16.28176774,0.00000000,
13:20:28:239,0.0039,-0.0023,0.0018,-0.0002,0.0002,-0.0000,4.9950,50.37562199,16.28176774,0.00000000,
13:20:28:252,0.0039,-0.0023,0.0018,-0.0002,-0.0003,-0.0003,4.9950,50.37562199,16.28176774,0.00000000,
13:20:28:265,-0.0031,-0.0004,0.0008,-0.0002,-0.0003,-0.0003,4.9950,50.37562199,16.28176774,0.00000000,
13:20:28:307,-0.0031,-0.0004,0.0008,-0.0002,-0.0003,-0.0003,4.9950,50.37562199,16.28176774,0.00000000,
13:20:28:319,-0.0031,-0.0004,0.0008,0.0003,0.0003,-0.0002,4.9950,50.37562199,16.28176774,0.00000000,
13:20:28:332,0.0032,0.0000,-0.0033,0.0003,0.0003,-0.0002,4.9950,50.37562199,16.28176774,0.00000000,
13:20:28:376,0.0032,0.0000,-0.0033,0.0003,0.0003,-0.0002,4.9950,50.37562199,16.28176774,0.00000000,
13:20:28:387,0.0032,0.0000,-0.0033,-0.0000,-0.0000,-0.0002,4.9950,50.37562199,16.28176774,0.00000000,
13:20:28:400,0.0022,-0.0010,0.0030,-0.0000,-0.0000,-0.0002,4.9950,50.37562199,16.28176774,0.00000000,
13:20:28:442,0.0022,-0.0010,0.0030,-0.0000,-0.0000,-0.0002,4.9950,50.37562199,16.28176774,0.00000000,
13:20:28:455,0.0022,-0.0010,0.0030,-0.0002,-0.0000,-0.0005,4.9950,50.37562199,16.28176774,0.00000000,
13:20:28:467,0.0004,0.0011,-0.0059,-0.0002,-0.0000,-0.0005,4.9950,50.37562199,16.28176774,0.00000000,
13:20:28:510,0.0004,0.0011,-0.0059,-0.0002,-0.0000,-0.0005,4.9950,50.37562199,16.28176774,0.00000000,
13:20:28:522,0.0004,0.0011,-0.0059,0.0000,-0.0003,-0.0000,4.9950,50.37562199,16.28176774,0.00000000,
13:20:28:536,-0.0004,0.0013,-0.0002,0.0000,-0.0003,-0.0000,4.9950,50.37562199,16.28176774,0.00000000,
13:20:28:578,-0.0004,0.0013,-0.0002,0.0000,-0.0003,-0.0000,4.9950,50.37562199,16.28176774,0.00000000,
13:20:28:590,-0.0004,0.0013,-0.0002,0.0003,0.0003,-0.0002,4.9950,50.37562199,16.28176774,0.00000000,
13:20:28:602,-0.0022,0.0013,-0.0015,0.0003,0.0003,-0.0002,4.9950,50.37562199,16.28176774,0.00000000,
13:20:28:646,-0.0022,0.0013,-0.0015,0.0003,0.0003,-0.0002,4.9950,50.37562199,16.28176774,0.00000000,
13:20:28:659,-0.0022,0.0013,-0.0015,-0.0002,0.0003,-0.0003,4.9950,50.37562199,16.28176774,0.00000000,
13:20:28:671,-0.0009,-0.0007,0.0016,-0.0002,0.0003,-0.0003,4.9950,50.37562199,16.28176774,0.00000000,
13:20:28:715,-0.0009,-0.0007,0.0016,-0.0002,0.0003,-0.0003,4.9950,50.37562199,16.28176774,0.00000000,
13:20:28:726,-0.0009,-0.0007,0.0016,-0.0002,-0.0000,-0.0002,4.9950,50.37562199,16.28176774,0.00000000,
13:20:28:739,-0.0013,0.0011,-0.0026,-0.0002,-0.0000,-0.0002,4.9950,50.37562199,16.28176774,0.00000000,
13:20:28:782,-0.0013,0.0011,-0.0026,-0.0002,-0.0000,-0.0002,4.9950,50.37562199,16.28176774,0.00000000,
13:20:28:795,-0.0013,0.0011,-0.0026,0.0000,0.0002,-0.0002,4.9950,50.37562199,16.28176774,0.00000000,
13:20:28:807,-0.0008,-0.0025,0.0017,0.0000,0.0002,-0.0002,4.9950,50.37562199,16.28176774,0.00000000,
13:20:28:848,-0.0008,-0.0025,0.0017,0.0000,0.0002,-0.0002,4.9950,50.37562199,16.28176774,0.00000000,
13:20:28:862,-0.0008,-0.0025,0.0017,0.0002,-0.0000,-0.0002,4.9950,50.37562199,16.28176774,0.00000000,
13:20:28:876,-0.0038,0.0004,-0.0001,0.0002,-0.0000,-0.0002,4.9950,50.37562199,16.28176774,0.00000000,
13:20:28:916,-0.0038,0.0004,-0.0001,0.0002,-0.0000,-0.0002,4.9950,50.37562199,16.28176774,0.00000000,
13:20:28:929,-0.0038,0.0004,-0.0001,-0.0000,-0.0000,-0.0002,4.9950,50.37562199,16.28176774,0.00000000,
13:20:28:943,0.0020,0.0039,0.0026,-0.0000,-0.0000,-0.0002,4.9950,50.37562199,16.28176774,0.00000000,
13:20:28:984,0.0020,0.0039,0.0026,-0.0000,-0.0000,-0.0002,4.9950,50.37562199,16.28176774,0.00000000,
13:20:28:996,0.0020,0.0039,0.0026,-0.0002,-0.0003,-0.0000,4.9950,50.37562199,16.28176774,0.00000000,
13:20:29:009,0.0030,-0.0009,0.0007,-0.0002,-0.0003,-0.0000,4.9950,50.37562199,16.28176774,0.00000000,
13:20:29:053,0.0030,-0.0009,0.0007,-0.0002,-0.0003,-0.0000,4.9950,50.37562199,16.28176774,0.00000000,
13:20:29:066,0.0030,-0.0009,0.0007,-0.0003,0.0000,-0.0005,4.9950,50.37562199,16.28176774,0.00000000,
13:20:29:077,0.0005,-0.0045,0.0028,-0.0003,0.0000,-0.0005,4.9950,50.37562199,16.28176774,0.00000000,
13:20:29:120,0.0005,-0.0045,0.0028,-0.0003,0.0000,-0.0005,4.9950,50.37562199,16.28176774,0.00000000,
13:20:29:126,0.0005,-0.0045,0.0028,-0.0003,0.0000,-0.0005,4.9950,50.37562199,16.28176774,0.00000000,
13:20:29:134,0.0005,-0.0045,0.0028,0.0002,-0.0003,-0.0000,4.9950,50.37562199,16.28176774,0.00000000,
13:20:29:146,-0.0009,-0.0017,-0.0034,0.0002,-0.0003,-0.0000,4.9950,50.37562199,16.28176774,0.00000000,
13:20:29:188,-0.0009,-0.0017,-0.0034,0.0002,-0.0003,-0.0000,4.9950,50.37562199,16.28176774,0.00000000,
13:20:29:201,-0.0009,-0.0017,-0.0034,-0.0003,-0.0003,-0.0002,4.9950,50.37562199,16.28176774,0.00000000,
13:20:29:215,0.0028,-0.0001,0.0036,-0.0003,-0.0003,-0.0002,4.9950,50.37562199,16.28176774,0.00000000,
13:20:29:256,0.0028,-0.0001,0.0036,-0.0003,-0.0003,-0.0002,4.9950,50.37562199,16.28176774,0.00000000,
13:20:29:268,0.0028,-0.0001,0.0036,-0.0002,0.0000,-0.0002,4.9950,50.37562199,16.28176774,0.00000000,
13:20:29:281,-0.0001,0.0022,0.0006,-0.0002,0.0000,-0.0002,4.9950,50.37562199,16.28176774,0.00000000,
13:20:29:323,-0.0001,0.0022,0.0006,-0.0002,0.0000,-0.0002,4.9950,50.37562199,16.28176774,0.00000000,
13:20:29:337,-0.0001,0.0022,0.0006,-0.0003,0.0000,-0.0002,4.9950,50.37562199,16.28176774,0.00000000,
13:20:29:351,0.0001,-0.0046,0.0002,-0.0003,0.0000,-0.0002,4.9950,50.37562199,16.28176774,0.00000000,
13:20:29:391,0.0001,-0.0046,0.0002,-0.0003,0.0000,-0.0002,4.9950,50.37562199,16.28176774,0.00000000,
13:20:29:404,0.0001,-0.0046,0.0002,0.0000,-0.0002,-0.0003,4.9950,50.37562199,16.28176774,0.00000000,
13:20:29:417,0.0001,-0.0020,0.0007,0.0000,-0.0002,-0.0003,4.9950,50.37562199,16.28176774,0.00000000,
13:20:29:460,0.0001,-0.0020,0.0007,0.0000,-0.0002,-0.0003,4.9950,50.37562199,16.28176774,0.00000000,
13:20:29:472,0.0001,-0.0020,0.0007,0.0002,0.0002,-0.0002,4.9950,50.37562199,16.28176774,0.00000000,
