
time,gFx,gFy,gFz,ax,ay,az,wx,wy,wz,I,Latitude,Longitude,Speed (m/s),
13:21:13:515,0.0000,0.0000,0.0000,0.0000,0.0000,0.0000,0.0000,0.0000,0.0000,179.0100,0.00000000,0.00000000,0.00000000,
13:21:13:556,0.0020,0.4415,0.8701,0.0000,0.0000,0.0000,0.0000,0.0000,0.0000,179.0100,50.37562996,16.28175822,0.00000000,
13:21:13:563,0.0020,0.4415,0.8701,0.0000,0.0000,0.0000,0.0522,0.0104,-0.0174,179.0100,50.37562996,16.28175822,0.00000000,
13:21:13:623,-0.0078,0.4391,0.9071,0.0000,0.0000,0.0000,0.0522,0.0104,-0.0174,179.0100,50.37562996,16.28175822,0.00000000,
13:21:13:631,-0.0078,0.4391,0.9071,0.0000,0.0000,0.0000,0.0466,0.0750,0.0538,179.0100,50.37562996,16.28175822,0.00000000,
13:21:13:648,-0.0078,0.4391,0.9071,0.0000,0.0000,0.0000,0.0466,0.0750,0.0538,179.0100,50.37562996,16.28175822,0.00000000,
13:21:13:691,-0.0129,0.4429,0.9029,0.0000,0.0000,0.0000,0.0466,0.0750,0.0538,179.0100,50.37562996,16.28175822,0.00000000,
13:21:13:699,-0.0129,0.4429,0.9029,0.0000,0.0000,0.0000,0.0110,0.0806,0.0541,179.0100,50.37562996,16.28175822,0.00000000,
13:21:13:716,-0.0129,0.4429,0.9029,-0.0406,0.0420,0.1049,0.0110,0.0806,0.0541,179.0100,50.37562996,16.28175822,0.00000000,
13:21:13:758,-0.0147,0.4399,0.9041,-0.0406,0.0420,0.1049,0.0110,0.0806,0.0541,179.0100,50.37562996,16.28175822,0.00000000,
13:21:13:764,-0.0147,0.4399,0.9041,-0.0406,0.0420,0.1049,0.0110,0.0806,0.0541,179.0100,50.37562996,16.28175822,0.00000000,
13:21:13:766,-0.0147,0.4399,0.9041,-0.0406,0.0420,0.1049,0.0101,0.0712,0.0124,179.0100,50.37562996,16.28175822,0.00000000,
13:21:13:784,-0.0147,0.4399,0.9041,0.0461,0.0067,0.1126,0.0101,0.0712,0.0124,179.0100,50.37562996,16.28175822,0.00000000,
13:21:13:825,-0.0217,0.4437,0.9013,0.0461,0.0067,0.1126,0.0101,0.0712,0.0124,179.0100,50.37562996,16.28175822,0.00000000,
13:21:13:835,-0.0217,0.4437,0.9013,0.0461,0.0067,0.1126,0.0286,0.0735,0.0140,179.0100,50.37562996,16.28175822,0.00000000,
13:21:13:852,-0.0217,0.4437,0.9013,-0.0165,-0.0071,0.0766,0.0286,0.0735,0.0140,179.0100,50.37562996,16.28175822,0.00000000,
13:21:13:895,-0.0190,0.4479,0.9228,-0.0165,-0.0071,0.0766,0.0286,0.0735,0.0140,179.0100,50.37562996,16.28175822,0.00000000,
13:21:13:903,-0.0190,0.4479,0.9228,-0.0165,-0.0071,0.0766,0.1471,0.0564,-0.0023,179.0100,50.37562996,16.28175822,0.00000000,
13:21:13:921,-0.0190,0.4479,0.9228,-0.0272,-0.1108,0.1030,0.1471,0.0564,-0.0023,179.0100,50.37562996,16.28175822,0.00000000,
13:21:13:924,-0.0190,0.4479,0.9228,-0.0272,-0.1108,0.1030,0.1471,0.0564,-0.0023,180.9675,50.37562996,16.28175822,0.00000000,
13:21:13:961,-0.0126,0.4623,0.9200,-0.0272,-0.1108,0.1030,0.1471,0.0564,-0.0023,180.9675,50.37562996,16.28175822,0.00000000,
13:21:13:974,-0.0126,0.4623,0.9200,-0.0272,-0.1108,0.1030,0.3612,0.0060,-0.0359,180.9675,50.37562996,16.28175822,0.00000000,
13:21:13:987,-0.0126,0.4623,0.9200,0.0069,-0.2073,0.4099,0.3612,0.0060,-0.0359,180.9675,50.37562931,16.28175891,0.00000000,
13:21:14:030,-0.0383,0.4880,0.8631,0.0069,-0.2073,0.4099,0.3612,0.0060,-0.0359,180.9675,50.37562931,16.28175891,0.00000000,
13:21:14:039,-0.0383,0.4880,0.8631,0.0069,-0.2073,0.4099,0.4991,-0.2219,-0.1379,180.9675,50.37562931,16.28175891,0.00000000,
13:21:14:055,-0.0383,0.4880,0.8631,0.0556,-0.2476,0.4226,0.4991,-0.2219,-0.1379,180.9675,50.37562931,16.28175891,0.00000000,
13:21:14:086,-0.0383,0.4880,0.8631,0.0556,-0.2476,0.4226,0.4991,-0.2219,-0.1379,180.0225,50.37562931,16.28175891,0.00000000,
13:21:14:098,-0.0223,0.5146,0.8910,0.0556,-0.2476,0.4226,0.4991,-0.2219,-0.1379,180.0225,50.37562931,16.28175891,0.00000000,
13:21:14:106,-0.0223,0.5146,0.8910,0.0556,-0.2476,0.4226,0.2211,-0.1518,0.0327,180.0225,50.37562931,16.28175891,0.00000000,
13:21:14:123,-0.0223,0.5146,0.8910,-0.3919,-0.1392,-0.2895,0.2211,-0.1518,0.0327,180.0225,50.37562931,16.28175891,0.00000000,
13:21:14:165,-0.0218,0.5480,0.9162,-0.3919,-0.1392,-0.2895,0.2211,-0.1518,0.0327,180.0225,50.37562931,16.28175891,0.00000000,
13:21:14:174,-0.0218,0.5480,0.9162,-0.3919,-0.1392,-0.2895,0.5603,-0.1086,0.1480,180.0225,50.37562931,16.28175891,0.00000000,
13:21:14:191,-0.0218,0.5480,0.9162,-0.1676,-0.0846,0.7820,0.5603,-0.1086,0.1480,180.0225,50.37562931,16.28175891,0.00000000,
13:21:14:234,0.0110,0.6000,0.7341,-0.1676,-0.0846,0.7820,0.5603,-0.1086,0.1480,180.0225,50.37562931,16.28175891,0.00000000,
13:21:14:242,0.0110,0.6000,0.7341,-0.1676,-0.0846,0.7820,0.4372,0.0625,0.3079,180.0225,50.37562931,16.28175891,0.00000000,
13:21:14:246,0.0110,0.6000,0.7341,-0.1676,-0.0846,0.7820,0.4372,0.0625,0.3079,180.9675,50.37562931,16.28175891,0.00000000,
13:21:14:258,0.0110,0.6000,0.7341,-0.4107,-0.1279,-0.0926,0.4372,0.0625,0.3079,180.9675,50.37562931,16.28175891,0.00000000,
13:21:14:301,0.0184,0.6208,0.9242,-0.4107,-0.1279,-0.0926,0.4372,0.0625,0.3079,180.9675,50.37562931,16.28175891,0.00000000,
13:21:14:310,0.0184,0.6208,0.9242,-0.4107,-0.1279,-0.0926,0.5053,0.3910,0.0116,180.9675,50.37562931,16.28175891,0.00000000,
13:21:14:326,0.0184,0.6208,0.9242,0.6595,0.2227,-0.4489,0.5053,0.3910,0.0116,180.9675,50.37562931,16.28175891,0.00000000,
13:21:14:370,-0.1271,0.5685,0.9121,0.6595,0.2227,-0.4489,0.5053,0.3910,0.0116,180.9675,50.37562931,16.28175891,0.00000000,
13:21:14:377,-0.1271,0.5685,0.9121,0.6595,0.2227,-0.4489,0.2164,-0.4879,0.2842,180.9675,50.37562931,16.28175891,0.00000000,
13:21:14:394,-0.1271,0.5685,0.9121,-1.1710,0.0665,1.1012,0.2164,-0.4879,0.2842,180.9675,50.37562931,16.28175891,0.00000000,
13:21:14:404,-0.1271,0.5685,0.9121,-1.1710,0.0665,1.1012,0.2164,-0.4879,0.2842,190.0125,50.37562931,16.28175891,0.00000000,
13:21:14:437,0.1188,0.5893,0.8628,-1.1710,0.0665,1.1012,0.2164,-0.4879,0.2842,190.0125,50.37562931,16.28175891,0.00000000,
13:21:14:445,0.1188,0.5893,0.8628,-1.1710,0.0665,1.1012,0.3065,-0.2899,0.0223,190.0125,50.37562931,16.28175891,0.00000000,
13:21:14:462,0.1188,0.5893,0.8628,-0.4099,-0.3329,1.1002,0.3065,-0.2899,0.0223,190.0125,50.37562931,16.28175891,0.00000000,
13:21:14:505,0.0538,0.5550,0.8797,-0.4099,-0.3329,1.1002,0.3065,-0.2899,0.0223,190.0125,50.37562931,16.28175891,0.00000000,
13:21:14:513,0.0538,0.5550,0.8797,-0.4099,-0.3329,1.1002,-0.0336,-0.1115,0.0664,190.0125,50.37562931,16.28175891,0.00000000,
13:21:14:529,0.0538,0.5550,0.8797,0.3381,-0.3712,0.0035,-0.0336,-0.1115,0.0664,190.0125,50.37562931,16.28175891,0.00000000,
13:21:14:565,0.0538,0.5550,0.8797,0.3381,-0.3712,0.0035,-0.0336,-0.1115,0.0664,191.0250,50.37562931,16.28175891,0.00000000,
13:21:14:573,0.1463,0.5671,0.7659,0.3381,-0.3712,0.0035,-0.0336,-0.1115,0.0664,191.0250,50.37562931,16.28175891,0.00000000,
13:21:14:580,0.1463,0.5671,0.7659,0.3381,-0.3712,0.0035,0.3335,-0.1026,-0.2216,191.0250,50.37562931,16.28175891,0.00000000,
13:21:14:596,0.1463,0.5671,0.7659,0.7809,-0.5783,0.6586,0.3335,-0.1026,-0.2216,191.0250,50.37562931,16.28175891,0.00000000,
13:21:14:640,0.0623,0.5646,0.6936,0.7809,-0.5783,0.6586,0.3335,-0.1026,-0.2216,191.0250,50.37562931,16.28175891,0.00000000,
13:21:14:648,0.0623,0.5646,0.6936,0.7809,-0.5783,0.6586,0.0513,-0.2775,-0.1721,191.0250,50.37562931,16.28175891,0.00000000,
13:21:14:665,0.0623,0.5646,0.6936,0.3330,-0.5164,-1.0393,0.0513,-0.2775,-0.1721,191.0250,50.37562931,16.28175891,0.00000000,
13:21:14:708,0.2030,0.5641,0.7435,0.3330,-0.5164,-1.0393,0.0513,-0.2775,-0.1721,191.0250,50.37562931,16.28175891,0.00000000,
13:21:14:717,0.2030,0.5641,0.7435,0.3330,-0.5164,-1.0393,0.0476,-0.4786,-0.2250,191.0250,50.37562931,16.28175891,0.00000000,
13:21:14:724,0.2030,0.5641,0.7435,0.3330,-0.5164,-1.0393,0.0476,-0.4786,-0.2250,197.9775,50.37562931,16.28175891,0.00000000,
13:21:14:733,0.2030,0.5641,0.7435,0.2055,-0.4616,-0.6571,0.0476,-0.4786,-0.2250,197.9775,50.37562931,16.28175891,0.00000000,
13:21:14:776,0.2469,0.5810,0.7561,0.2055,-0.4616,-0.6571,0.0476,-0.4786,-0.2250,197.9775,50.37562931,16.28175891,0.00000000,
13:21:14:787,0.2469,0.5810,0.7561,0.2055,-0.4616,-0.6571,-0.4792,-0.0696,-0.6158,197.9775,50.37562931,16.28175891,0.00000000,
13:21:14:800,0.2469,0.5810,0.7561,1.9432,-0.1707,-0.6704,-0.4792,-0.0696,-0.6158,197.9775,50.37562931,16.28175891,0.00000000,
13:21:14:843,-0.0018,0.6585,0.9151,1.9432,-0.1707,-0.6704,-0.4792,-0.0696,-0.6158,197.9775,50.37562931,16.28175891,0.00000000,
13:21:14:854,-0.0018,0.6585,0.9151,1.9432,-0.1707,-0.6704,-0.2324,-0.1523,-0.3172,197.9775,50.37562931,16.28175891,0.00000000,
13:21:14:870,-0.0018,0.6585,0.9151,0.5371,0.1593,0.0229,-0.2324,-0.1523,-0.3172,197.9775,50.37562931,16.28175891,0.00000000,
13:21:14:887,-0.0018,0.6585,0.9151,0.5371,0.1593,0.0229,-0.2324,-0.1523,-0.3172,223.0200,50.37562931,16.28175891,0.00000000,
13:21:14:911,-0.0596,0.8239,0.8445,0.5371,0.1593,0.0229,-0.2324,-0.1523,-0.3172,223.0200,50.37562931,16.28175891,0.00000000,
13:21:14:919,-0.0596,0.8239,0.8445,0.5371,0.1593,0.0229,0.3629,-0.7379,0.1466,223.0200,50.37562931,16.28175891,0.00000000,
13:21:14:936,-0.0596,0.8239,0.8445,-1.6646,1.0372,1.1710,0.3629,-0.7379,0.1466,223.0200,50.37562931,16.28175891,0.00000000,
13:21:14:983,-0.0024,0.8798,0.8338,-1.6646,1.0372,1.1710,0.3629,-0.7379,0.1466,223.0200,50.37562931,16.28175891,0.00000000,
13:21:14:987,-0.0024,0.8798,0.8338,-1.6646,1.0372,1.1710,0.0223,-0.7705,0.2133,223.0200,50.37562931,16.28175891,0.00000000,
13:21:15:003,-0.0024,0.8798,0.8338,-1.8299,2.2919,0.1716,0.0223,-0.7705,0.2133,223.0200,50.37562931,16.28175891,0.00000000,
13:21:15:045,-0.0024,0.8798,0.8338,-1.8299,2.2919,0.1716,0.0223,-0.7705,0.2133,274.9950,50.37562931,16.28175891,0.00000000,
13:21:15:046,0.0128,0.8410,0.8922,-1.8299,2.2919,0.1716,0.0223,-0.7705,0.2133,274.9950,50.37562931,16.28175891,0.00000000,
13:21:15:055,0.0128,0.8410,0.8922,-1.8299,2.2919,0.1716,-0.0469,-0.9209,0.3383,274.9950,50.37562931,16.28175891,0.00000000,
13:21:15:073,0.0128,0.8410,0.8922,-1.9928,2.0383,0.6281,-0.0469,-0.9209,0.3383,274.9950,50.37562931,16.28175891,0.00000000,
13:21:15:115,0.2335,0.7685,0.8414,-1.9928,2.0383,0.6281,-0.0469,-0.9209,0.3383,274.9950,50.37562931,16.28175891,0.00000000,
13:21:15:123,0.2335,0.7685,0.8414,-1.9928,2.0383,0.6281,0.5611,-0.9366,0.5592,274.9950,50.37562931,16.28175891,0.00000000,
13:21:15:140,0.2335,0.7685,0.8414,-1.8712,1.1498,1.3941,0.5611,-0.9366,0.5592,274.9950,50.37562931,16.28175891,0.00000000,
13:21:15:183,0.5861,0.6023,0.5840,-1.8712,1.1498,1.3941,0.5611,-0.9366,0.5592,274.9950,50.37562931,16.28175891,0.00000000,
13:21:15:191,0.5861,0.6023,0.5840,-1.8712,1.1498,1.3941,0.3887,-0.6064,-0.1950,274.9950,50.37562931,16.28175891,0.00000000,
13:21:15:205,0.5861,0.6023,0.5840,-1.8712,1.1498,1.3941,0.3887,-0.6064,-0.1950,276.0075,50.37562931,16.28175891,0.00000000,
13:21:15:207,0.5861,0.6023,0.5840,1.5851,0.0279,-0.1336,0.3887,-0.6064,-0.1950,276.0075,50.37562931,16.28175891,0.00000000,
13:21:15:250,0.3799,0.4809,0.5386,1.5851,0.0279,-0.1336,0.3887,-0.6064,-0.1950,276.0075,50.37562931,16.28175891,0.00000000,
13:21:15:259,0.3799,0.4809,0.5386,1.5851,0.0279,-0.1336,0.0939,-0.8511,-0.5101,276.0075,50.37562931,16.28175891,0.00000000,
13:21:15:275,0.3799,0.4809,0.5386,1.9200,-1.8410,-1.4668,0.0939,-0.8511,-0.5101,276.0075,50.37562931,16.28175891,0.00000000,
13:21:15:319,0.3651,0.5517,0.6267,1.9200,-1.8410,-1.4668,0.0939,-0.8511,-0.5101,276.0075,50.37562931,16.28175891,0.00000000,
13:21:15:326,0.3651,0.5517,0.6267,1.9200,-1.8410,-1.4668,0.0446,-1.0130,-0.4545,276.0075,50.37562931,16.28175891,0.00000000,
13:21:15:344,0.3651,0.5517,0.6267,0.3685,-1.9728,-1.0053,0.0446,-1.0130,-0.4545,276.0075,50.37562931,16.28175891,0.00000000,
13:21:15:365,0.3651,0.5517,0.6267,0.3685,-1.9728,-1.0053,0.0446,-1.0130,-0.4545,268.9875,50.37562931,16.28175891,0.00000000,
13:21:15:387,0.3054,0.6477,0.5195,0.3685,-1.9728,-1.0053,0.0446,-1.0130,-0.4545,268.9875,50.37562931,16.28175891,0.00000000,
13:21:15:394,0.3054,0.6477,0.5195,0.3685,-1.9728,-1.0053,0.3943,-0.8807,-0.4560,268.9875,50.37562931,16.28175891,0.00000000,
13:21:15:410,0.3054,0.6477,0.5195,-0.2363,-1.2302,0.0068,0.3943,-0.8807,-0.4560,268.9875,50.37562931,16.28175891,0.00000000,
13:21:15:454,0.2257,0.6878,0.4449,-0.2363,-1.2302,0.0068,0.3943,-0.8807,-0.4560,268.9875,50.37562931,16.28175891,0.00000000,
13:21:15:462,0.2257,0.6878,0.4449,-0.2363,-1.2302,0.0068,0.1463,-0.6851,-0.5018,268.9875,50.37562931,16.28175891,0.00000000,
13:21:15:479,0.2257,0.6878,0.4449,-0.5953,-0.4934,-1.2370,0.1463,-0.6851,-0.5018,268.9875,50.37562931,16.28175891,0.00000000,
13:21:15:521,0.2033,0.7138,0.4342,-0.5953,-0.4934,-1.2370,0.1463,-0.6851,-0.5018,268.9875,50.37562931,16.28175891,0.00000000,
13:21:15:525,0.2033,0.7138,0.4342,-0.5953,-0.4934,-1.2370,0.1463,-0.6851,-0.5018,262.9800,50.37562931,16.28175891,0.00000000,
13:21:15:530,0.2033,0.7138,0.4342,-0.5953,-0.4934,-1.2370,0.1106,-0.2546,-0.6257,262.9800,50.37562931,16.28175891,0.00000000,
13:21:15:547,0.2033,0.7138,0.4342,-0.9604,-0.4928,-1.1761,0.1106,-0.2546,-0.6257,262.9800,50.37562931,16.28175891,0.00000000,
13:21:15:589,0.0920,0.7755,0.3581,-0.9604,-0.4928,-1.1761,0.1106,-0.2546,-0.6257,262.9800,50.37562931,16.28175891,0.00000000,
13:21:15:597,0.0920,0.7755,0.3581,-0.9604,-0.4928,-1.1761,-0.1013,0.1756,-1.0919,262.9800,50.37562931,16.28175891,0.00000000,
13:21:15:615,0.0920,0.7755,0.3581,-0.5237,-0.1143,-1.4269,-0.1013,0.1756,-1.0919,262.9800,50.37562931,16.28175891,0.00000000,
13:21:15:657,-0.2038,0.8559,0.4726,-0.5237,-0.1143,-1.4269,-0.1013,0.1756,-1.0919,262.9800,50.37562931,16.28175891,0.00000000,
13:21:15:666,-0.2038,0.8559,0.4726,-0.5237,-0.1143,-1.4269,-0.5256,0.5802,-0.8854,262.9800,50.37562931,16.28175891,0.00000000,
13:21:15:682,-0.2038,0.8559,0.4726,-1.5740,0.5495,-2.0771,-0.5256,0.5802,-0.8854,262.9800,50.37562931,16.28175891,0.00000000,
13:21:15:686,-0.2038,0.8559,0.4726,-1.5740,0.5495,-2.0771,-0.5256,0.5802,-0.8854,261.9675,50.37562931,16.28175891,0.00000000,
13:21:15:724,-0.3108,0.9023,0.6356,-1.5740,0.5495,-2.0771,-0.5256,0.5802,-0.8854,261.9675,50.37562931,16.28175891,0.00000000,
13:21:15:735,-0.3108,0.9023,0.6356,-1.5740,0.5495,-2.0771,-0.0255,0.8205,-0.3178,261.9675,50.37562931,16.28175891,0.00000000,
13:21:15:752,-0.3108,0.9023,0.6356,-3.2172,1.1353,-0.1521,-0.0255,0.8205,-0.3178,261.9675,50.37562931,16.28175891,0.00000000,
13:21:15:793,-0.2928,0.9568,0.6042,-3.2172,1.1353,-0.1521,-0.0255,0.8205,-0.3178,261.9675,50.37562931,16.28175891,0.00000000,
13:21:15:802,-0.2928,0.9568,0.6042,-3.2172,1.1353,-0.1521,0.2083,1.5372,0.0157,261.9675,50.37562931,16.28175891,0.00000000,
13:21:15:818,-0.2928,0.9568,0.6042,-2.5994,1.2641,0.6817,0.2083,1.5372,0.0157,261.9675,50.37562931,16.28175891,0.00000000,
13:21:15:845,-0.2928,0.9568,0.6042,-2.5994,1.2641,0.6817,0.2083,1.5372,0.0157,267.9750,50.37562931,16.28175891,0.00000000,
13:21:15:860,-0.2386,0.9048,0.7358,-2.5994,1.2641,0.6817,0.2083,1.5372,0.0157,267.9750,50.37562931,16.28175891,0.00000000,
13:21:15:869,-0.2386,0.9048,0.7358,-2.5994,1.2641,0.6817,0.1710,1.6835,0.0901,267.9750,50.37562931,16.28175891,0.00000000,
13:21:15:885,-0.2386,0.9048,0.7358,-1.7391,1.3695,0.5609,0.1710,1.6835,0.0901,267.9750,50.37562931,16.28175891,0.00000000,
13:21:15:928,0.0452,0.8016,0.7945,-1.7391,1.3695,0.5609,0.1710,1.6835,0.0901,267.9750,50.37562931,16.28175891,0.00000000,
13:21:15:937,0.0452,0.8016,0.7945,-1.7391,1.3695,0.5609,0.2521,1.7358,0.0951,267.9750,50.37562931,16.28175891,0.00000000,
13:21:15:954,0.0452,0.8016,0.7945,0.1875,0.4066,2.1742,0.2521,1.7358,0.0951,267.9750,50.37562931,16.28175891,0.00000000,
13:21:15:996,0.1525,0.6806,0.8274,0.1875,0.4066,2.1742,0.2521,1.7358,0.0951,267.9750,50.37562931,16.28175891,0.00000000,
13:21:16:003,0.1525,0.6806,0.8274,0.1875,0.4066,2.1742,-0.0941,2.0046,0.2786,267.9750,50.37562931,16.28175891,0.00000000,
13:21:16:004,0.1525,0.6806,0.8274,0.1875,0.4066,2.1742,-0.0941,2.0046,0.2786,268.9875,50.37562931,16.28175891,0.00000000,
13:21:16:021,0.1525,0.6806,0.8274,3.0876,-0.5682,2.2154,-0.0941,2.0046,0.2786,268.9875,50.37562931,16.28175891,0.00000000,
13:21:16:064,0.4422,0.5120,0.9710,3.0876,-0.5682,2.2154,-0.0941,2.0046,0.2786,268.9875,50.37562931,16.28175891,0.00000000,
13:21:16:072,0.4422,0.5120,0.9710,3.0876,-0.5682,2.2154,-0.0301,1.2821,0.8827,268.9875,50.37562931,16.28175891,0.00000000,
13:21:16:089,0.4422,0.5120,0.9710,3.3763,-1.9329,2.8402,-0.0301,1.2821,0.8827,268.9875,50.37562931,16.28175891,0.00000000,
13:21:16:132,0.5102,0.3772,0.9008,3.3763,-1.9329,2.8402,-0.0301,1.2821,0.8827,268.9875,50.37562931,16.28175891,0.00000000,
13:21:16:140,0.5102,0.3772,0.9008,3.3763,-1.9329,2.8402,0.3940,1.3286,0.9607,268.9875,50.37562931,16.28175891,0.00000000,
13:21:16:157,0.5102,0.3772,0.9008,5.5500,-3.4427,3.7066,0.3940,1.3286,0.9607,268.9875,50.37562931,16.28175891,0.00000000,
13:21:16:165,0.5102,0.3772,0.9008,5.5500,-3.4427,3.7066,0.3940,1.3286,0.9607,274.9950,50.37562931,16.28175891,0.00000000,
13:21:16:199,0.2606,0.4661,0.6210,5.5500,-3.4427,3.7066,0.3940,1.3286,0.9607,274.9950,50.37562931,16.28175891,0.00000000,
13:21:16:207,0.2606,0.4661,0.6210,5.5500,-3.4427,3.7066,0.4604,0.7665,0.5554,274.9950,50.37562931,16.28175891,0.00000000,
13:21:16:225,0.2606,0.4661,0.6210,4.5588,-3.7681,2.0023,0.4604,0.7665,0.5554,274.9950,50.37562931,16.28175891,0.00000000,
13:21:16:268,0.2365,0.6214,0.5570,4.5588,-3.7681,2.0023,0.4604,0.7665,0.5554,274.9950,50.37562931,16.28175891,0.00000000,
13:21:16:276,0.2365,0.6214,0.5570,4.5588,-3.7681,2.0023,-0.3615,-0.1471,0.2220,274.9950,50.37562931,16.28175891,0.00000000,
13:21:16:292,0.2365,0.6214,0.5570,1.6980,-1.6832,-0.6569,-0.3615,-0.1471,0.2220,274.9950,50.37562931,16.28175891,0.00000000,
13:21:16:325,0.2365,0.6214,0.5570,1.6980,-1.6832,-0.6569,-0.3615,-0.1471,0.2220,265.0050,50.37562931,16.28175891,0.00000000,
13:21:16:339,0.1930,0.7843,0.6796,1.6980,-1.6832,-0.6569,-0.3615,-0.1471,0.2220,265.0050,50.37562931,16.28175891,0.00000000,
13:21:16:344,0.1930,0.7843,0.6796,1.6980,-1.6832,-0.6569,-1.4024,-0.4783,-0.3592,265.0050,50.37562931,16.28175891,0.00000000,
13:21:16:359,0.1930,0.7843,0.6796,1.4385,0.2421,-0.9191,-1.4024,-0.4783,-0.3592,265.0050,50.37562931,16.28175891,0.00000000,
13:21:16:403,0.0983,0.9414,1.0387,1.4385,0.2421,-0.9191,-1.4024,-0.4783,-0.3592,265.0050,50.37562931,16.28175891,0.00000000,
13:21:16:412,0.0983,0.9414,1.0387,1.4385,0.2421,-0.9191,-2.0779,-1.4117,-1.0996,265.0050,50.37562931,16.28175891,0.00000000,
13:21:16:432,0.0983,0.9414,1.0387,0.7485,2.6714,0.0868,-2.0779,-1.4117,-1.0996,265.0050,50.37562931,16.28175891,0.00000000,
13:21:16:471,0.0456,0.9925,1.5123,0.7485,2.6714,0.0868,-2.0779,-1.4117,-1.0996,265.0050,50.37562931,16.28175891,0.00000000,
13:21:16:479,0.0456,0.9925,1.5123,0.7485,2.6714,0.0868,-1.7196,-2.0916,-1.5915,265.0050,50.37562931,16.28175891,0.00000000,
13:21:16:485,0.0456,0.9925,1.5123,0.7485,2.6714,0.0868,-1.7196,-2.0916,-1.5915,206.0100,50.37562931,16.28175891,0.00000000,
13:21:16:496,0.0456,0.9925,1.5123,-0.4424,3.9021,3.5741,-1.7196,-2.0916,-1.5915,206.0100,50.37562931,16.28175891,0.00000000,
13:21:16:539,-0.0881,0.7993,1.3838,-0.4424,3.9021,3.5741,-1.7196,-2.0916,-1.5915,206.0100,50.37562931,16.28175891,0.00000000,
13:21:16:547,-0.0881,0.7993,1.3838,-0.4424,3.9021,3.5741,-1.1310,-1.3393,-1.4325,206.0100,50.37562931,16.28175891,0.00000000,
13:21:16:564,-0.0881,0.7993,1.3838,-1.1766,3.3890,5.9069,-1.1310,-1.3393,-1.4325,206.0100,50.37562931,16.28175891,0.00000000,
13:21:16:605,-0.1132,0.5270,1.3864,-1.1766,3.3890,5.9069,-1.1310,-1.3393,-1.4325,206.0100,50.37562931,16.28175891,0.00000000,
13:21:16:615,-0.1132,0.5270,1.3864,-1.1766,3.3890,5.9069,-0.0281,-1.7958,-1.0973,206.0100,50.37562931,16.28175891,0.00000000,
13:21:16:632,-0.1132,0.5270,1.3864,-3.5230,1.3761,4.4207,-0.0281,-1.7958,-1.0973,206.0100,50.37562931,16.28175891,0.00000000,
13:21:16:645,-0.1132,0.5270,1.3864,-3.5230,1.3761,4.4207,-0.0281,-1.7958,-1.0973,147.0150,50.37562931,16.28175891,0.00000000,
13:21:16:674,-0.2708,0.4527,0.8990,-3.5230,1.3761,4.4207,-0.0281,-1.7958,-1.0973,147.0150,50.37562931,16.28175891,0.00000000,
13:21:16:682,-0.2708,0.4527,0.8990,-3.5230,1.3761,4.4207,-0.5043,-0.8980,-0.5357,147.0150,50.37562931,16.28175891,0.00000000,
13:21:16:700,-0.2708,0.4527,0.8990,-3.4619,-0.6605,1.3405,-0.5043,-0.8980,-0.5357,147.0150,50.37562931,16.28175891,0.00000000,
13:21:16:742,-0.1635,0.3760,0.7566,-3.4619,-0.6605,1.3405,-0.5043,-0.8980,-0.5357,147.0150,50.37562931,16.28175891,0.00000000,
13:21:16:751,-0.1635,0.3760,0.7566,-3.4619,-0.6605,1.3405,-0.7369,-0.9299,-0.4675,147.0150,50.37562931,16.28175891,0.00000000,
13:21:16:767,-0.1635,0.3760,0.7566,-3.9645,-0.7507,-1.5715,-0.7369,-0.9299,-0.4675,147.0150,50.37562931,16.28175891,0.00000000,
13:21:16:805,-0.1635,0.3760,0.7566,-3.9645,-0.7507,-1.5715,-0.7369,-0.9299,-0.4675,133.9875,50.37562931,16.28175891,0.00000000,
13:21:16:810,-0.1428,0.3868,0.6677,-3.9645,-0.7507,-1.5715,-0.7369,-0.9299,-0.4675,133.9875,50.37562931,16.28175891,0.00000000,
13:21:16:818,-0.1428,0.3868,0.6677,-3.9645,-0.7507,-1.5715,-0.7135,-0.5673,-0.3592,133.9875,50.37562931,16.28175891,0.00000000,
13:21:16:835,-0.1428,0.3868,0.6677,-3.0223,-0.9097,-2.5154,-0.7135,-0.5673,-0.3592,133.9875,50.37562931,16.28175891,0.00000000,
13:21:16:877,0.0031,0.3761,0.6019,-3.0223,-0.9097,-2.5154,-0.7135,-0.5673,-0.3592,133.9875,50.37562931,16.28175891,0.00000000,
13:21:16:886,0.0031,0.3761,0.6019,-3.0223,-0.9097,-2.5154,-0.8407,-0.3172,-0.9336,133.9875,50.37562931,16.28175891,0.00000000,
13:21:16:903,0.0031,0.3761,0.6019,-1.7965,-0.0071,-3.4097,-0.8407,-0.3172,-0.9336,133.9875,50.37562931,16.28175891,0.00000000,
13:21:16:945,-0.0723,0.3666,0.7160,-1.7965,-0.0071,-3.4097,-0.8407,-0.3172,-0.9336,133.9875,50.37562931,16.28175891,0.00000000,
13:21:16:953,-0.0723,0.3666,0.7160,-1.7965,-0.0071,-3.4097,-0.6732,-0.1492,-1.2950,133.9875,50.37562931,16.28175891,0.00000000,
13:21:16:964,-0.0723,0.3666,0.7160,-1.7965,-0.0071,-3.4097,-0.6732,-0.1492,-1.2950,126.9675,50.37562931,16.28175891,0.00000000,
13:21:16:972,-0.0723,0.3666,0.7160,-0.9259,0.0722,-3.0879,-0.6732,-0.1492,-1.2950,126.9675,50.37562931,16.28175891,0.00000000,
13:21:17:014,-0.0812,0.3795,0.7596,-0.9259,0.0722,-3.0879,-0.6732,-0.1492,-1.2950,126.9675,50.37562931,16.28175891,0.00000000,
13:21:17:022,-0.0812,0.3795,0.7596,-0.9259,0.0722,-3.0879,0.1747,0.1323,-1.1296,126.9675,50.37562931,16.28175891,0.00000000,
13:21:17:039,-0.0812,0.3795,0.7596,-1.1423,-0.3533,-1.5479,0.1747,0.1323,-1.1296,126.9675,50.37562931,16.28175891,0.00000000,
13:21:17:081,-0.0512,0.3766,0.6857,-1.1423,-0.3533,-1.5479,0.1747,0.1323,-1.1296,126.9675,50.37562931,16.28175891,0.00000000,
13:21:17:089,-0.0512,0.3766,0.6857,-1.1423,-0.3533,-1.5479,0.6200,-0.2595,-1.0783,126.9675,50.37562931,16.28175891,0.00000000,
13:21:17:107,-0.0512,0.3766,0.6857,-0.5918,-0.5216,-1.4635,0.6200,-0.2595,-1.0783,126.9675,50.37562931,16.28175891,0.00000000,
13:21:17:125,-0.0512,0.3766,0.6857,-0.5918,-0.5216,-1.4635,0.6200,-0.2595,-1.0783,137.9700,50.37562931,16.28175891,0.00000000,
13:21:17:148,-0.1049,0.4487,0.8018,-0.5918,-0.5216,-1.4635,0.6200,-0.2595,-1.0783,137.9700,50.37562931,16.28175891,0.00000000,
13:21:17:157,-0.1049,0.4487,0.8018,-0.5918,-0.5216,-1.4635,0.5105,-0.6077,-0.8880,137.9700,50.37562931,16.28175891,0.00000000,
13:21:17:174,-0.1049,0.4487,0.8018,-0.8175,-0.5390,-1.3350,0.5105,-0.6077,-0.8880,137.9700,50.37562931,16.28175891,0.00000000,
13:21:17:217,-0.1018,0.5047,0.9698,-0.8175,-0.5390,-1.3350,0.5105,-0.6077,-0.8880,137.9700,50.37562931,16.28175891,0.00000000,
13:21:17:225,-0.1018,0.5047,0.9698,-0.8175,-0.5390,-1.3350,-0.1437,-0.4988,-0.8435,137.9700,50.37562931,16.28175891,0.00000000,
13:21:17:241,-0.1018,0.5047,0.9698,-0.8789,0.4998,0.0770,-0.1437,-0.4988,-0.8435,137.9700,50.37562931,16.28175891,0.00000000,
13:21:17:284,-0.2071,0.4588,0.9840,-0.8789,0.4998,0.0770,-0.1437,-0.4988,-0.8435,137.9700,50.37562931,16.28175891,0.00000000,
13:21:17:289,-0.2071,0.4588,0.9840,-0.8789,0.4998,0.0770,-0.1437,-0.4988,-0.8435,138.9825,50.37562931,16.28175891,0.00000000,
13:21:17:293,-0.2071,0.4588,0.9840,-0.8789,0.4998,0.0770,-0.1298,0.2265,-0.2259,138.9825,50.37562931,16.28175891,0.00000000,
13:21:17:310,-0.2071,0.4588,0.9840,-1.1454,0.4373,1.4228,-0.1298,0.2265,-0.2259,138.9825,50.37562931,16.28175891,0.00000000,
13:21:17:354,-0.0784,0.4388,0.8262,-1.1454,0.4373,1.4228,-0.1298,0.2265,-0.2259,138.9825,50.37562931,16.28175891,0.00000000,
13:21:17:360,-0.0784,0.4388,0.8262,-1.1454,0.4373,1.4228,0.1755,0.1440,0.6600,138.9825,50.37562931,16.28175891,0.00000000,
13:21:17:377,-0.0784,0.4388,0.8262,-1.5314,-0.0946,0.4856,0.1755,0.1440,0.6600,138.9825,50.37562931,16.28175891,0.00000000,
13:21:17:420,0.1744,0.4764,0.7261,-1.5314,-0.0946,0.4856,0.1755,0.1440,0.6600,138.9825,50.37562931,16.28175891,0.00000000,
13:21:17:428,0.1744,0.4764,0.7261,-1.5314,-0.0946,0.4856,0.2282,-0.1046,0.9296,138.9825,50.37562931,16.28175891,0.00000000,
13:21:17:444,0.1744,0.4764,0.7261,-1.5314,-0.0946,0.4856,0.2282,-0.1046,0.9296,136.0125,50.37562931,16.28175891,0.00000000,
13:21:17:446,0.1744,0.4764,0.7261,0.1357,-0.1627,-0.8051,0.2282,-0.1046,0.9296,136.0125,50.37562931,16.28175891,0.00000000,
13:21:17:487,0.2849,0.5414,0.7916,0.1357,-0.1627,-0.8051,0.2282,-0.1046,0.9296,136.0125,50.37562931,16.28175891,0.00000000,
13:21:17:496,0.2849,0.5414,0.7916,0.1357,-0.1627,-0.8051,0.1364,-0.4302,0.6413,136.0125,50.37562931,16.28175891,0.00000000,
13:21:17:513,0.2849,0.5414,0.7916,1.5480,0.2297,-1.0587,0.1364,-0.4302,0.6413,136.0125,50.37562931,16.28175891,0.00000000,
13:21:17:556,0.4620,0.6296,0.9719,1.5480,0.2297,-1.0587,0.1364,-0.4302,0.6413,136.0125,50.37562931,16.28175891,0.00000000,
13:21:17:563,0.4620,0.6296,0.9719,1.5480,0.2297,-1.0587,-0.0420,-1.4149,0.0192,136.0125,50.37562931,16.28175891,0.00000000,
13:21:17:580,0.4620,0.6296,0.9719,1.4640,0.9216,0.0464,-0.0420,-1.4149,0.0192,136.0125,50.37562931,16.28175891,0.00000000,
13:21:17:605,0.4620,0.6296,0.9719,1.4640,0.9216,0.0464,-0.0420,-1.4149,0.0192,125.0100,50.37562931,16.28175891,0.00000000,
13:21:17:624,0.4518,0.4576,1.2649,1.4640,0.9216,0.0464,-0.0420,-1.4149,0.0192,125.0100,50.37562931,16.28175891,0.00000000,
13:21:17:633,0.4518,0.4576,1.2649,1.4640,0.9216,0.0464,0.0018,-0.3042,-0.6605,125.0100,50.37562931,16.28175891,0.00000000,
13:21:17:649,0.4518,0.4576,1.2649,3.3540,0.7998,2.6023,0.0018,-0.3042,-0.6605,125.0100,50.37562931,16.28175891,0.00000000,
13:21:17:691,0.2755,0.4228,0.9869,3.3540,0.7998,2.6023,0.0018,-0.3042,-0.6605,125.0100,50.37562931,16.28175891,0.00000000,
13:21:17:700,0.2755,0.4228,0.9869,3.3540,0.7998,2.6023,0.7460,-0.0713,-0.2964,125.0100,50.37562931,16.28175891,0.00000000,
13:21:17:717,0.2755,0.4228,0.9869,1.3658,-1.1799,3.3310,0.7460,-0.0713,-0.2964,125.0100,50.37562931,16.28175891,0.00000000,
13:21:17:758,0.1507,0.4116,0.5545,1.3658,-1.1799,3.3310,0.7460,-0.0713,-0.2964,125.0100,50.37562931,16.28175891,0.00000000,
13:21:17:767,0.1507,0.4116,0.5545,1.3658,-1.1799,3.3310,0.7460,-0.0713,-0.2964,114.0075,50.37562931,16.28175891,0.00000000,
13:21:17:769,0.1507,0.4116,0.5545,1.3658,-1.1799,3.3310,0.7147,0.5102,-0.3738,114.0075,50.37562931,16.28175891,0.00000000,
13:21:17:784,0.1507,0.4116,0.5545,0.9181,-1.4458,-0.3189,0.7147,0.5102,-0.3738,114.0075,50.37562931,16.28175891,0.00000000,
13:21:17:826,-0.0740,0.4034,0.3755,0.9181,-1.4458,-0.3189,0.7147,0.5102,-0.3738,114.0075,50.37562931,16.28175891,0.00000000,
13:21:17:835,-0.0740,0.4034,0.3755,0.9181,-1.4458,-0.3189,0.2955,0.6005,-0.1998,114.0075,50.37562931,16.28175891,0.00000000,
13:21:17:852,-0.0740,0.4034,0.3755,-0.5570,-1.5530,-3.4634,0.2955,0.6005,-0.1998,114.0075,50.37562931,16.28175891,0.00000000,
13:21:17:895,-0.1613,0.4850,0.4612,-0.5570,-1.5530,-3.4634,0.2955,0.6005,-0.1998,114.0075,50.37562931,16.28175891,0.00000000,
13:21:17:903,-0.1613,0.4850,0.4612,-0.5570,-1.5530,-3.4634,-0.0305,0.3822,0.2983,114.0075,50.37562931,16.28175891,0.00000000,
13:21:17:919,-0.1613,0.4850,0.4612,-2.1548,-1.1304,-3.7204,-0.0305,0.3822,0.2983,114.0075,50.37562931,16.28175891,0.00000000,
13:21:17:925,-0.1613,0.4850,0.4612,-2.1548,-1.1304,-3.7204,-0.0305,0.3822,0.2983,111.9825,50.37562931,16.28175891,0.00000000,
13:21:17:961,-0.1662,0.6011,0.8134,-2.1548,-1.1304,-3.7204,-0.0305,0.3822,0.2983,111.9825,50.37562931,16.28175891,0.00000000,
13:21:17:971,-0.1662,0.6011,0.8134,-2.1548,-1.1304,-3.7204,-0.2761,0.3016,0.6338,111.9825,50.37562931,16.28175891,0.00000000,
13:21:17:988,-0.1662,0.6011,0.8134,-2.2627,0.1133,-1.9161,-0.2761,0.3016,0.6338,111.9825,50.37562931,16.28175891,0.00000000,
13:21:18:030,-0.0469,0.6359,1.3233,-2.2627,0.1133,-1.9161,-0.2761,0.3016,0.6338,111.9825,50.37562931,16.28175891,0.00000000,
13:21:18:038,-0.0469,0.6359,1.3233,-2.2627,0.1133,-1.9161,0.2364,0.9120,1.2094,111.9825,50.37562931,16.28175891,0.00000000,
13:21:18:056,-0.0469,0.6359,1.3233,-1.8439,0.7833,2.5826,0.2364,0.9120,1.2094,111.9825,50.37562931,16.28175891,0.00000000,
13:21:18:085,-0.0469,0.6359,1.3233,-1.8439,0.7833,2.5826,0.2364,0.9120,1.2094,92.0025,50.37562931,16.28175891,0.00000000,
13:21:18:099,0.1371,0.6452,1.1808,-1.8439,0.7833,2.5826,0.2364,0.9120,1.2094,92.0025,50.37562931,16.28175891,0.00000000,
13:21:18:106,0.1371,0.6452,1.1808,-1.8439,0.7833,2.5826,1.0357,0.9248,1.7478,92.0025,50.37562931,16.28175891,0.00000000,
13:21:18:123,0.1371,0.6452,1.1808,-0.4829,0.3360,5.2792,1.0357,0.9248,1.7478,92.0025,50.37562931,16.28175891,0.00000000,
13:21:18:166,0.2085,0.6896,0.9438,-0.4829,0.3360,5.2792,1.0357,0.9248,1.7478,92.0025,50.37562931,16.28175891,0.00000000,
13:21:18:174,0.2085,0.6896,0.9438,-0.4829,0.3360,5.2792,0.9296,0.4687,1.6625,92.0025,50.37562931,16.28175891,0.00000000,
13:21:18:191,0.2085,0.6896,0.9438,0.7581,0.1101,2.6849,0.9296,0.4687,1.6625,92.0025,50.37562931,16.28175891,0.00000000,
13:21:18:234,0.3484,0.6348,0.9446,0.7581,0.1101,2.6849,0.9296,0.4687,1.6625,92.0025,50.37562931,16.28175891,0.00000000,
13:21:18:241,0.3484,0.6348,0.9446,0.7581,0.1101,2.6849,0.5779,0.0901,1.0330,92.0025,50.37562931,16.28175891,0.00000000,
13:21:18:245,0.3484,0.6348,0.9446,0.7581,0.1101,2.6849,0.5779,0.0901,1.0330,76.0050,50.37562931,16.28175891,0.00000000,
13:21:18:259,0.3484,0.6348,0.9446,0.8370,0.3627,1.3822,0.5779,0.0901,1.0330,76.0050,50.37562931,16.28175891,0.00000000,
13:21:18:301,0.2426,0.4626,0.7540,0.8370,0.3627,1.3822,0.5779,0.0901,1.0330,76.0050,50.37562931,16.28175891,0.00000000,
13:21:18:310,0.2426,0.4626,0.7540,0.8370,0.3627,1.3822,0.9236,0.5041,0.2657,76.0050,50.37562931,16.28175891,0.00000000,
13:21:18:326,0.2426,0.4626,0.7540,1.7276,-1.3295,1.4015,0.9236,0.5041,0.2657,76.0050,50.37562931,16.28175891,0.00000000,
13:21:18:371,0.1315,0.4227,0.5197,1.7276,-1.3295,1.4015,0.9236,0.5041,0.2657,76.0050,50.37562931,16.28175891,0.00000000,
13:21:18:377,0.1315,0.4227,0.5197,1.7276,-1.3295,1.4015,0.7489,-0.0745,-0.0912,76.0050,50.37562931,16.28175891,0.00000000,
13:21:18:395,0.1315,0.4227,0.5197,0.1898,-2.6131,-0.9252,0.7489,-0.0745,-0.0912,76.0050,50.37562931,16.28175891,0.00000000,
13:21:18:405,0.1315,0.4227,0.5197,0.1898,-2.6131,-0.9252,0.7489,-0.0745,-0.0912,74.9925,50.37562931,16.28175891,0.00000000,
13:21:18:436,0.0671,0.4693,0.6306,0.1898,-2.6131,-0.9252,0.7489,-0.0745,-0.0912,74.9925,50.37562931,16.28175891,0.00000000,
13:21:18:444,0.0671,0.4693,0.6306,0.1898,-2.6131,-0.9252,-0.2010,-0.3596,-0.2723,74.9925,50.37562931,16.28175891,0.00000000,
13:21:18:463,0.0671,0.4693,0.6306,-0.5580,-2.1429,-1.8895,-0.2010,-0.3596,-0.2723,74.9925,50.37562931,16.28175891,0.00000000,
13:21:18:505,0.1249,0.4465,0.8525,-0.5580,-2.1429,-1.8895,-0.2010,-0.3596,-0.2723,74.9925,50.37562931,16.28175891,0.00000000,
13:21:18:514,0.1249,0.4465,0.8525,-0.5580,-2.1429,-1.8895,-0.6686,-0.1002,-0.1417,74.9925,50.37562931,16.28175891,0.00000000,
13:21:18:529,0.1249,0.4465,0.8525,-0.7742,-1.3026,-0.0601,-0.6686,-0.1002,-0.1417,74.9925,50.37562931,16.28175891,0.00000000,
13:21:18:565,0.1249,0.4465,0.8525,-0.7742,-1.3026,-0.0601,-0.6686,-0.1002,-0.1417,72.9675,50.37562931,16.28175891,0.00000000,
13:21:18:573,0.0479,0.5516,0.6958,-0.7742,-1.3026,-0.0601,-0.6686,-0.1002,-0.1417,72.9675,50.37562931,16.28175891,0.00000000,
13:21:18:583,0.0479,0.5516,0.6958,-0.7742,-1.3026,-0.0601,-1.0336,0.1707,-0.1064,72.9675,50.37562931,16.28175891,0.00000000,
13:21:18:598,0.0479,0.5516,0.6958,-0.2345,-0.6150,0.1165,-1.0336,0.1707,-0.1064,72.9675,50.37562931,16.28175891,0.00000000,
13:21:18:640,0.0211,0.5614,0.9133,-0.2345,-0.6150,0.1165,-1.0336,0.1707,-0.1064,72.9675,50.37562931,16.28175891,0.00000000,
13:21:18:649,0.0211,0.5614,0.9133,-0.2345,-0.6150,0.1165,-1.5334,0.5327,-0.0240,72.9675,50.37562931,16.28175891,0.00000000,
13:21:18:667,0.0211,0.5614,0.9133,-0.5517,1.1269,-1.0873,-1.5334,0.5327,-0.0240,72.9675,50.37562931,16.28175891,0.00000000,
13:21:18:708,-0.0839,0.5740,0.9759,-0.5517,1.1269,-1.0873,-1.5334,0.5327,-0.0240,72.9675,50.37562931,16.28175891,0.00000000,
13:21:18:716,-0.0839,0.5740,0.9759,-0.5517,1.1269,-1.0873,-0.6138,0.5399,0.6307,72.9675,50.37562931,16.28175891,0.00000000,
13:21:18:725,-0.0839,0.5740,0.9759,-0.5517,1.1269,-1.0873,-0.6138,0.5399,0.6307,69.9975,50.37562931,16.28175891,0.00000000,
13:21:18:734,-0.0839,0.5740,0.9759,-1.1349,1.0417,1.1581,-0.6138,0.5399,0.6307,69.9975,50.37562931,16.28175891,0.00000000,
13:21:18:776,0.1284,0.6027,1.0261,-1.1349,1.0417,1.1581,-0.6138,0.5399,0.6307,69.9975,50.37562931,16.28175891,0.00000000,
13:21:18:784,0.1284,0.6027,1.0261,-1.1349,1.0417,1.1581,-0.0912,-0.1054,1.1377,69.9975,50.37562931,16.28175891,0.00000000,
13:21:18:801,0.1284,0.6027,1.0261,-1.3228,1.2741,0.9115,-0.0912,-0.1054,1.1377,69.9975,50.37562931,16.28175891,0.00000000,
13:21:18:843,0.1431,0.5558,0.8476,-1.3228,1.2741,0.9115,-0.0912,-0.1054,1.1377,69.9975,50.37562931,16.28175891,0.00000000,
13:21:18:852,0.1431,0.5558,0.8476,-1.3228,1.2741,0.9115,0.4375,0.8819,0.9734,69.9975,50.37562931,16.28175891,0.00000000,
13:21:18:869,0.1431,0.5558,0.8476,1.0620,0.8575,1.3508,0.4375,0.8819,0.9734,69.9975,50.37562931,16.28175891,0.00000000,
13:21:18:885,0.1431,0.5558,0.8476,1.0620,0.8575,1.3508,0.4375,0.8819,0.9734,66.0150,50.37562931,16.28175891,0.00000000,
13:21:18:912,0.1060,0.5193,0.6705,1.0620,0.8575,1.3508,0.4375,0.8819,0.9734,66.0150,50.37562931,16.28175891,0.00000000,
13:21:18:919,0.1060,0.5193,0.6705,1.0620,0.8575,1.3508,0.5783,0.5603,1.2042,66.0150,50.37562931,16.28175891,0.00000000,
13:21:18:937,0.1060,0.5193,0.6705,-0.1215,0.1513,-1.1586,0.5783,0.5603,1.2042,66.0150,50.37562931,16.28175891,0.00000000,
13:21:18:979,0.2074,0.5131,0.7019,-0.1215,0.1513,-1.1586,0.5783,0.5603,1.2042,66.0150,50.37562931,16.28175891,0.00000000,
13:21:18:987,0.2074,0.5131,0.7019,-0.1215,0.1513,-1.1586,0.6666,0.5936,1.0912,66.0150,50.37562931,16.28175891,0.00000000,
13:21:19:004,0.2074,0.5131,0.7019,0.4830,-0.3825,-1.3014,0.6666,0.5936,1.0912,66.0150,50.37562931,16.28175891,0.00000000,
13:21:19:045,0.2074,0.5131,0.7019,0.4830,-0.3825,-1.3014,0.6666,0.5936,1.0912,62.0325,50.37562931,16.28175891,0.00000000,
13:21:19:048,0.1640,0.5248,0.6987,0.4830,-0.3825,-1.3014,0.6666,0.5936,1.0912,62.0325,50.37562931,16.28175891,0.00000000,
13:21:19:055,0.1640,0.5248,0.6987,0.4830,-0.3825,-1.3014,0.6074,0.7689,0.7744,62.0325,50.37562931,16.28175891,0.00000000,
13:21:19:072,0.1640,0.5248,0.6987,1.0530,-0.5501,-0.8415,0.6074,0.7689,0.7744,62.0325,50.37562931,16.28175891,0.00000000,
13:21:19:116,0.1408,0.5711,0.8452,1.0530,-0.5501,-0.8415,0.6074,0.7689,0.7744,62.0325,50.37562931,16.28175891,0.00000000,
13:21:19:123,0.1408,0.5711,0.8452,1.0530,-0.5501,-0.8415,0.3725,0.6390,0.8247,62.0325,50.37562931,16.28175891,0.00000000,
13:21:19:141,0.1408,0.5711,0.8452,0.1606,-0.4215,-0.4285,0.3725,0.6390,0.8247,62.0325,50.37562931,16.28175891,0.00000000,
13:21:19:183,0.2531,0.7077,1.1724,0.1606,-0.4215,-0.4285,0.3725,0.6390,0.8247,62.0325,50.37562931,16.28175891,0.00000000,
13:21:19:191,0.2531,0.7077,1.1724,0.1606,-0.4215,-0.4285,0.0589,0.1180,0.7161,62.0325,50.37562931,16.28175891,0.00000000,
13:21:19:205,0.2531,0.7077,1.1724,0.1606,-0.4215,-0.4285,0.0589,0.1180,0.7161,60.0075,50.37562931,16.28175891,0.00000000,
13:21:19:209,0.2531,0.7077,1.1724,0.3490,0.5423,1.5069,0.0589,0.1180,0.7161,60.0075,50.37562931,16.28175891,0.00000000,
13:21:19:250,0.2560,0.5152,1.1262,0.3490,0.5423,1.5069,0.0589,0.1180,0.7161,60.0075,50.37562931,16.28175891,0.00000000,
13:21:19:259,0.2560,0.5152,1.1262,0.3490,0.5423,1.5069,0.2989,1.5346,0.3946,60.0075,50.37562931,16.28175891,0.00000000,
13:21:19:276,0.2560,0.5152,1.1262,2.4442,0.5389,4.1647,0.2989,1.5346,0.3946,60.0075,50.37562931,16.28175891,0.00000000,
13:21:19:317,-0.0174,0.5196,0.7336,2.4442,0.5389,4.1647,0.2989,1.5346,0.3946,60.0075,50.37562931,16.28175891,0.00000000,
13:21:19:327,-0.0174,0.5196,0.7336,2.4442,0.5389,4.1647,0.5754,0.7559,0.9404,60.0075,50.37562931,16.28175891,0.00000000,
13:21:19:343,-0.0174,0.5196,0.7336,-0.1397,-1.2715,0.9541,0.5754,0.7559,0.9404,60.0075,50.37562931,16.28175891,0.00000000,
13:21:19:365,-0.0174,0.5196,0.7336,-0.1397,-1.2715,0.9541,0.5754,0.7559,0.9404,56.9700,50.37562931,16.28175891,0.00000000,
13:21:19:386,0.2061,0.5644,0.8169,-0.1397,-1.2715,0.9541,0.5754,0.7559,0.9404,56.9700,50.37562931,16.28175891,0.00000000,
13:21:19:395,0.2061,0.5644,0.8169,-0.1397,-1.2715,0.9541,0.4586,0.0641,0.7856,56.9700,50.37562931,16.28175891,0.00000000,
13:21:19:413,0.2061,0.5644,0.8169,-0.5924,-0.7954,-0.6894,0.4586,0.0641,0.7856,56.9700,50.37562931,16.28175891,0.00000000,
13:21:19:454,0.1084,0.5319,0.7095,-0.5924,-0.7954,-0.6894,0.4586,0.0641,0.7856,56.9700,50.37562931,16.28175891,0.00000000,
13:21:19:464,0.1084,0.5319,0.7095,-0.5924,-0.7954,-0.6894,0.4803,0.4565,0.1106,56.9700,50.37562931,16.28175891,0.00000000,
13:21:19:479,0.1084,0.5319,0.7095,1.1077,-0.7316,0.2574,0.4803,0.4565,0.1106,56.9700,50.37562931,16.28175891,0.00000000,
13:21:19:521,-0.0103,0.4729,0.5976,1.1077,-0.7316,0.2574,0.4803,0.4565,0.1106,56.9700,50.37562931,16.28175891,0.00000000,
13:21:19:526,-0.0103,0.4729,0.5976,1.1077,-0.7316,0.2574,0.4803,0.4565,0.1106,57.9825,50.37562931,16.28175891,0.00000000,
13:21:19:532,-0.0103,0.4729,0.5976,1.1077,-0.7316,0.2574,0.2361,0.4195,-0.0197,57.9825,50.37562931,16.28175891,0.00000000,
13:21:19:548,-0.0103,0.4729,0.5976,-0.3793,-1.2970,-1.2297,0.2361,0.4195,-0.0197,57.9825,50.37562931,16.28175891,0.00000000,
13:21:19:590,-0.0367,0.4808,0.5893,-0.3793,-1.2970,-1.2297,0.2361,0.4195,-0.0197,57.9825,50.37562931,16.28175891,0.00000000,
13:21:19:597,-0.0367,0.4808,0.5893,-0.3793,-1.2970,-1.2297,-0.0622,0.2883,-0.1762,57.9825,50.37562931,16.28175891,0.00000000,
13:21:19:615,-0.0367,0.4808,0.5893,-0.6220,-1.3277,-1.7093,-0.0622,0.2883,-0.1762,57.9825,50.37562931,16.28175891,0.00000000,
13:21:19:658,-0.1088,0.5404,0.7384,-0.6220,-1.3277,-1.7093,-0.0622,0.2883,-0.1762,57.9825,50.37562931,16.28175891,0.00000000,
13:21:19:666,-0.1088,0.5404,0.7384,-0.6220,-1.3277,-1.7093,-0.4833,0.0927,-0.1619,57.9825,50.37562931,16.28175891,0.00000000,
13:21:19:682,-0.1088,0.5404,0.7384,-0.8976,-0.7019,-1.3766,-0.4833,0.0927,-0.1619,57.9825,50.37562931,16.28175891,0.00000000,
13:21:19:725,-0.0265,0.6254,1.0247,-0.8976,-0.7019,-1.3766,-0.4833,0.0927,-0.1619,57.9825,50.37562931,16.28175891,0.00000000,
13:21:19:734,-0.0265,0.6254,1.0247,-0.8976,-0.7019,-1.3766,-0.7978,-0.0727,0.0341,57.9825,50.37562931,16.28175891,0.00000000,
13:21:19:751,-0.0265,0.6254,1.0247,-1.2464,0.4416,0.4055,-0.7978,-0.0727,0.0341,57.9825,50.37562931,16.28175891,0.00000000,
13:21:19:793,0.1173,0.6621,1.0578,-1.2464,0.4416,0.4055,-0.7978,-0.0727,0.0341,57.9825,50.37562931,16.28175891,0.00000000,
13:21:19:801,0.1173,0.6621,1.0578,-1.2464,0.4416,0.4055,-0.9488,0.4061,-0.1234,57.9825,50.37562931,16.28175891,0.00000000,
13:21:19:819,0.1173,0.6621,1.0578,0.5276,1.4658,2.1742,-0.9488,0.4061,-0.1234,57.9825,50.37562931,16.28175891,0.00000000,
13:21:19:846,0.1173,0.6621,1.0578,0.5276,1.4658,2.1742,-0.9488,0.4061,-0.1234,55.0125,50.37562931,16.28175891,0.00000000,
13:21:19:861,0.1645,0.6868,1.3218,0.5276,1.4658,2.1742,-0.9488,0.4061,-0.1234,55.0125,50.37562931,16.28175891,0.00000000,
13:21:19:869,0.1645,0.6868,1.3218,0.5276,1.4658,2.1742,-1.5291,0.0550,-0.5148,55.0125,50.37562931,16.28175891,0.00000000,
13:21:19:886,0.1645,0.6868,1.3218,1.4302,2.5986,1.1949,-1.5291,0.0550,-0.5148,55.0125,50.37562931,16.28175891,0.00000000,
13:21:19:929,0.2737,0.4726,1.5827,1.4302,2.5986,1.1949,-1.5291,0.0550,-0.5148,55.0125,50.37562931,16.28175891,0.00000000,
13:21:19:937,0.2737,0.4726,1.5827,1.4302,2.5986,1.1949,0.1397,0.3497,-0.0594,55.0125,50.37562931,16.28175891,0.00000000,
13:21:19:954,0.2737,0.4726,1.5827,1.9904,0.9828,5.8628,0.1397,0.3497,-0.0594,55.0125,50.37562931,16.28175891,0.00000000,
13:21:19:997,0.2628,0.4480,0.8331,1.9904,0.9828,5.8628,0.1397,0.3497,-0.0594,55.0125,50.37562931,16.28175891,0.00000000,
13:21:20:005,0.2628,0.4480,0.8331,1.9904,0.9828,5.8628,1.3115,-0.2833,0.0619,55.0125,50.37562931,16.28175891,0.00000000,
13:21:20:008,0.2628,0.4480,0.8331,1.9904,0.9828,5.8628,1.3115,-0.2833,0.0619,51.9750,50.37562931,16.28175891,0.00000000,
13:21:20:022,0.2628,0.4480,0.8331,2.2264,-1.0623,3.3921,1.3115,-0.2833,0.0619,51.9750,50.37562931,16.28175891,0.00000000,
13:21:20:065,0.1642,0.4033,0.4692,2.2264,-1.0623,3.3921,1.3115,-0.2833,0.0619,51.9750,50.37562931,16.28175891,0.00000000,
13:21:20:073,0.1642,0.4033,0.4692,2.2264,-1.0623,3.3921,0.9923,-0.3505,-0.3096,51.9750,50.37562931,16.28175891,0.00000000,
13:21:20:090,0.1642,0.4033,0.4692,1.5360,-1.5411,-2.5586,0.9923,-0.3505,-0.3096,51.9750,50.37562931,16.28175891,0.00000000,
13:21:20:132,0.0801,0.3595,0.3608,1.5360,-1.5411,-2.5586,0.9923,-0.3505,-0.3096,51.9750,50.37562931,16.28175891,0.00000000,
13:21:20:140,0.0801,0.3595,0.3608,1.5360,-1.5411,-2.5586,0.6826,-0.2566,-0.4600,51.9750,50.37562931,16.28175891,0.00000000,
13:21:20:157,0.0801,0.3595,0.3608,0.4264,-2.2898,-4.0010,0.6826,-0.2566,-0.4600,51.9750,50.37562931,16.28175891,0.00000000,
13:21:20:199,-0.0027,0.4185,0.3731,0.4264,-2.2898,-4.0010,0.6826,-0.2566,-0.4600,51.9750,50.37562931,16.28175891,0.00000000,
13:21:20:207,-0.0027,0.4185,0.3731,0.4264,-2.2898,-4.0010,0.2944,-0.4383,-0.4523,51.9750,50.37562931,16.28175891,0.00000000,
13:21:20:225,-0.0027,0.4185,0.3731,-0.3332,-2.2050,-4.0726,0.2944,-0.4383,-0.4523,51.9750,50.37562931,16.28175891,0.00000000,
13:21:20:268,-0.0418,0.5602,0.5713,-0.3332,-2.2050,-4.0726,0.2944,-0.4383,-0.4523,51.9750,50.37562931,16.28175891,0.00000000,
13:21:20:276,-0.0418,0.5602,0.5713,-0.3332,-2.2050,-4.0726,-0.1814,-0.8303,-0.2929,51.9750,50.37562931,16.28175891,0.00000000,
13:21:20:293,-0.0418,0.5602,0.5713,-1.3490,-1.0195,-2.9881,-0.1814,-0.8303,-0.2929,51.9750,50.37562931,16.28175891,0.00000000,
13:21:20:325,-0.0418,0.5602,0.5713,-1.3490,-1.0195,-2.9881,-0.1814,-0.8303,-0.2929,52.9875,50.37562931,16.28175891,0.00000000,
13:21:20:336,0.0283,0.6838,0.9073,-1.3490,-1.0195,-2.9881,-0.1814,-0.8303,-0.2929,52.9875,50.37562931,16.28175891,0.00000000,
13:21:20:345,0.0283,0.6838,0.9073,-1.3490,-1.0195,-2.9881,-0.6791,-0.4739,-0.3717,52.9875,50.37562931,16.28175891,0.00000000,
13:21:20:361,0.0283,0.6838,0.9073,-0.9653,0.7687,-0.6094,-0.6791,-0.4739,-0.3717,52.9875,50.37562931,16.28175891,0.00000000,
13:21:20:404,-0.1796,0.6500,1.0329,-0.9653,0.7687,-0.6094,-0.6791,-0.4739,-0.3717,52.9875,50.37562931,16.28175891,0.00000000,
13:21:20:420,-0.1796,0.6500,1.0329,-0.9653,0.7687,-0.6094,-0.5641,1.0372,-0.1446,52.9875,50.37562931,16.28175891,0.00000000,
13:21:20:435,-0.1796,0.6500,1.0329,-0.2757,1.3820,2.1019,-0.5641,1.0372,-0.1446,52.9875,50.37562931,16.28175891,0.00000000,
13:21:20:471,-0.2727,0.7100,0.9818,-0.2757,1.3820,2.1019,-0.5641,1.0372,-0.1446,52.9875,50.37562931,16.28175891,0.00000000,
13:21:20:478,-0.2727,0.7100,0.9818,-0.2757,1.3820,2.1019,-0.0359,0.2857,0.9957,52.9875,50.37562931,16.28175891,0.00000000,
13:21:20:484,-0.2727,0.7100,0.9818,-0.2757,1.3820,2.1019,-0.0359,0.2857,0.9957,54.0000,50.37562931,16.28175891,0.00000000,
13:21:20:496,-0.2727,0.7100,0.9818,-3.0460,1.0459,1.7185,-0.0359,0.2857,0.9957,54.0000,50.37562931,16.28175891,0.00000000,
13:21:20:538,0.1900,0.6305,1.2452,-3.0460,1.0459,1.7185,-0.0359,0.2857,0.9957,54.0000,50.37562931,16.28175891,0.00000000,
13:21:20:547,0.1900,0.6305,1.2452,-3.0460,1.0459,1.7185,0.4110,0.0991,1.3720,54.0000,50.37562931,16.28175891,0.00000000,
13:21:20:564,0.1900,0.6305,1.2452,-1.6330,1.3130,2.5241,0.4110,0.0991,1.3720,54.0000,50.37562931,16.28175891,0.00000000,
13:21:20:606,-0.0020,0.5275,0.6701,-1.6330,1.3130,2.5241,0.4110,0.0991,1.3720,54.0000,50.37562931,16.28175891,0.00000000,
13:21:20:615,-0.0020,0.5275,0.6701,-1.6330,1.3130,2.5241,1.5020,1.0314,1.2782,54.0000,50.37562931,16.28175891,0.00000000,
13:21:20:632,-0.0020,0.5275,0.6701,1.4008,-1.1851,3.1758,1.5020,1.0314,1.2782,54.0000,50.37562931,16.28175891,0.00000000,
13:21:20:647,-0.0020,0.5275,0.6701,1.4008,-1.1851,3.1758,1.5020,1.0314,1.2782,52.9875,50.37562931,16.28175891,0.00000000,
13:21:20:675,0.0518,0.6495,0.5322,1.4008,-1.1851,3.1758,1.5020,1.0314,1.2782,52.9875,50.37562931,16.28175891,0.00000000,
13:21:20:683,0.0518,0.6495,0.5322,1.4008,-1.1851,3.1758,0.6955,-0.4549,1.3068,52.9875,50.37562931,16.28175891,0.00000000,
13:21:20:700,0.0518,0.6495,0.5322,-1.8594,-0.9172,-2.4021,0.6955,-0.4549,1.3068,52.9875,50.37562931,16.28175891,0.00000000,
13:21:20:743,0.1798,0.6748,0.8180,-1.8594,-0.9172,-2.4021,0.6955,-0.4549,1.3068,52.9875,50.37562931,16.28175891,0.00000000,
13:21:20:751,0.1798,0.6748,0.8180,-1.8594,-0.9172,-2.4021,0.2556,0.1206,0.3934,52.9875,50.37562931,16.28175891,0.00000000,
13:21:20:767,0.1798,0.6748,0.8180,0.2654,-0.0448,-0.6251,0.2556,0.1206,0.3934,52.9875,50.37562931,16.28175891,0.00000000,
13:21:20:810,-0.0268,0.5831,0.7671,0.2654,-0.0448,-0.6251,0.2556,0.1206,0.3934,52.9875,50.37562931,16.28175891,0.00000000,
13:21:20:819,-0.0268,0.5831,0.7671,0.2654,-0.0448,-0.6251,0.0423,0.8859,-0.0615,52.9875,50.37562931,16.28175891,0.00000000,
13:21:20:836,-0.0268,0.5831,0.7671,0.3718,-0.2209,0.7256,0.0423,0.8859,-0.0615,52.9875,50.37562931,16.28175891,0.00000000,
13:21:20:877,-0.0903,0.5237,0.6437,0.3718,-0.2209,0.7256,0.0423,0.8859,-0.0615,52.9875,50.37562931,16.28175891,0.00000000,
13:21:20:886,-0.0903,0.5237,0.6437,0.3718,-0.2209,0.7256,0.1358,0.9297,0.0577,52.9875,50.37562931,16.28175891,0.00000000,
13:21:20:904,-0.0903,0.5237,0.6437,-0.9171,-1.1536,-0.0869,0.1358,0.9297,0.0577,52.9875,50.37562931,16.28175891,0.00000000,
13:21:20:945,-0.1261,0.5557,0.5228,-0.9171,-1.1536,-0.0869,0.1358,0.9297,0.0577,52.9875,50.37562931,16.28175891,0.00000000,
13:21:20:954,-0.1261,0.5557,0.5228,-0.9171,-1.1536,-0.0869,-0.2535,0.6211,0.1486,52.9875,50.37562931,16.28175891,0.00000000,
13:21:20:971,-0.1261,0.5557,0.5228,-0.9494,-0.9953,-1.5648,-0.2535,0.6211,0.1486,52.9875,50.37562931,16.28175891,0.00000000,
13:21:21:013,-0.0809,0.6254,0.7437,-0.9494,-0.9953,-1.5648,-0.2535,0.6211,0.1486,52.9875,50.37562931,16.28175891,0.00000000,
13:21:21:021,-0.0809,0.6254,0.7437,-0.9494,-0.9953,-1.5648,-0.8746,0.0557,0.2361,52.9875,50.37562931,16.28175891,0.00000000,
13:21:21:038,-0.0809,0.6254,0.7437,-1.1119,-0.0472,-1.9648,-0.8746,0.0557,0.2361,52.9875,50.37562931,16.28175891,0.00000000,
13:21:21:086,0.0985,0.7224,1.1363,-1.1119,-0.0472,-1.9648,-0.8746,0.0557,0.2361,52.9875,50.37562931,16.28175891,0.00000000,
13:21:21:089,0.0985,0.7224,1.1363,-1.1119,-0.0472,-1.9648,-0.8971,-0.2023,0.4007,52.9875,50.37562931,16.28175891,0.00000000,
13:21:21:106,0.0985,0.7224,1.1363,-0.5344,1.1409,1.0354,-0.8971,-0.2023,0.4007,52.9875,50.37562931,16.28175891,0.00000000,
13:21:21:126,0.0985,0.7224,1.1363,-0.5344,1.1409,1.0354,-0.8971,-0.2023,0.4007,51.9750,50.37562931,16.28175891,0.00000000,
13:21:21:149,0.2670,0.5791,1.1598,-0.5344,1.1409,1.0354,-0.8971,-0.2023,0.4007,51.9750,50.37562931,16.28175891,0.00000000,
13:21:21:156,0.2670,0.5791,1.1598,-0.5344,1.1409,1.0354,-0.4664,0.6513,0.1807,51.9750,50.37562931,16.28175891,0.00000000,
13:21:21:174,0.2670,0.5791,1.1598,2.1904,1.3588,3.5047,-0.4664,0.6513,0.1807,51.9750,50.37562931,16.28175891,0.00000000,
13:21:21:217,0.0521,0.4784,0.8451,2.1904,1.3588,3.5047,-0.4664,0.6513,0.1807,51.9750,50.37562931,16.28175891,0.00000000,
13:21:21:226,0.0521,0.4784,0.8451,2.1904,1.3588,3.5047,0.3126,0.6810,0.6319,51.9750,50.37562931,16.28175891,0.00000000,
13:21:21:242,0.0521,0.4784,0.8451,1.5888,-0.4745,1.8637,0.3126,0.6810,0.6319,51.9750,50.37562931,16.28175891,0.00000000,
13:21:21:284,0.0398,0.5303,0.5302,1.5888,-0.4745,1.8637,0.3126,0.6810,0.6319,51.9750,50.37562931,16.28175891,0.00000000,
13:21:21:289,0.0398,0.5303,0.5302,1.5888,-0.4745,1.8637,0.3126,0.6810,0.6319,51.0300,50.37562931,16.28175891,0.00000000,
13:21:21:293,0.0398,0.5303,0.5302,1.5888,-0.4745,1.8637,0.4317,0.1515,0.8795,51.0300,50.37562931,16.28175891,0.00000000,
13:21:21:311,0.0398,0.5303,0.5302,-0.0775,-0.9582,-1.1830,0.4317,0.1515,0.8795,51.0300,50.37562931,16.28175891,0.00000000,
13:21:21:353,-0.0009,0.6064,0.5536,-0.0775,-0.9582,-1.1830,0.4317,0.1515,0.8795,51.0300,50.37562931,16.28175891,0.00000000,
13:21:21:362,-0.0009,0.6064,0.5536,-0.0775,-0.9582,-1.1830,-0.1970,0.1184,0.6718,51.0300,50.37562931,16.28175891,0.00000000,
13:21:21:378,-0.0009,0.6064,0.5536,-0.2289,0.1053,-2.9964,-0.1970,0.1184,0.6718,51.0300,50.37562931,16.28175891,0.00000000,
13:21:21:420,-0.0622,0.6131,0.7713,-0.2289,0.1053,-2.9964,-0.1970,0.1184,0.6718,51.0300,50.37562931,16.28175891,0.00000000,
13:21:21:429,-0.0622,0.6131,0.7713,-0.2289,0.1053,-2.9964,-0.6185,0.2781,0.5591,51.0300,50.37562931,16.28175891,0.00000000,
13:21:21:445,-0.0622,0.6131,0.7713,-0.7980,0.8525,-1.9666,-0.6185,0.2781,0.5591,51.0300,50.37562931,16.28175891,0.00000000,
13:21:21:487,-0.0667,0.5590,0.9853,-0.7980,0.8525,-1.9666,-0.6185,0.2781,0.5591,51.0300,50.37562931,16.28175891,0.00000000,
13:21:21:497,-0.0667,0.5590,0.9853,-0.7980,0.8525,-1.9666,-0.0524,0.8129,0.6892,51.0300,50.37562931,16.28175891,0.00000000,
13:21:21:513,-0.0667,0.5590,0.9853,-0.7259,0.4554,0.8490,-0.0524,0.8129,0.6892,51.0300,50.37562931,16.28175891,0.00000000,
13:21:21:556,-0.1138,0.5420,0.8517,-0.7259,0.4554,0.8490,-0.0524,0.8129,0.6892,51.0300,50.37562931,16.28175891,0.00000000,
13:21:21:564,-0.1138,0.5420,0.8517,-0.7259,0.4554,0.8490,0.3386,0.9296,0.8986,51.0300,50.37562931,16.28175891,0.00000000,
13:21:21:580,-0.1138,0.5420,0.8517,-0.7239,-0.0972,1.1687,0.3386,0.9296,0.8986,51.0300,50.37562931,16.28175891,0.00000000,
13:21:21:606,-0.1138,0.5420,0.8517,-0.7239,-0.0972,1.1687,0.3386,0.9296,0.8986,51.9750,50.37562931,16.28175891,0.00000000,
13:21:21:625,-0.1201,0.5728,0.9123,-0.7239,-0.0972,1.1687,0.3386,0.9296,0.8986,51.9750,50.37562931,16.28175891,0.00000000,
13:21:21:632,-0.1201,0.5728,0.9123,-0.7239,-0.0972,1.1687,0.0522,0.7114,1.1600,51.9750,50.37562931,16.28175891,0.00000000,
13:21:21:648,-0.1201,0.5728,0.9123,-1.1023,-0.1536,0.2696,0.0522,0.7114,1.1600,51.9750,50.37562931,16.28175891,0.00000000,
13:21:21:692,0.0840,0.4815,1.1993,-1.1023,-0.1536,0.2696,0.0522,0.7114,1.1600,51.9750,50.37562931,16.28175891,0.00000000,
13:21:21:700,0.0840,0.4815,1.1993,-1.1023,-0.1536,0.2696,-0.2370,0.8380,1.0973,51.9750,50.37562931,16.28175891,0.00000000,
13:21:21:718,0.0840,0.4815,1.1993,-0.1687,0.3091,1.6066,-0.2370,0.8380,1.0973,51.9750,50.37562931,16.28175891,0.00000000,
13:21:21:759,-0.1873,0.4186,0.8130,-0.1687,0.3091,1.6066,-0.2370,0.8380,1.0973,51.9750,50.37562931,16.28175891,0.00000000,
13:21:21:765,-0.1873,0.4186,0.8130,-0.1687,0.3091,1.6066,-0.2370,0.8380,1.0973,51.0300,50.37562931,16.28175891,0.00000000,
13:21:21:768,-0.1873,0.4186,0.8130,-0.1687,0.3091,1.6066,0.3939,1.4508,1.2854,51.0300,50.37562931,16.28175891,0.00000000,
13:21:21:785,-0.1873,0.4186,0.8130,0.6468,-1.4358,2.6757,0.3939,1.4508,1.2854,51.0300,50.37562931,16.28175891,0.00000000,
13:21:21:827,-0.0506,0.4866,0.8811,0.6468,-1.4358,2.6757,0.3939,1.4508,1.2854,51.0300,50.37562931,16.28175891,0.00000000,
13:21:21:838,-0.0506,0.4866,0.8811,0.6468,-1.4358,2.6757,-0.2338,-0.0806,1.3748,51.0300,50.37562931,16.28175891,0.00000000,
13:21:21:853,-0.0506,0.4866,0.8811,-1.9253,-0.7768,-1.3803,-0.2338,-0.0806,1.3748,51.0300,50.37562931,16.28175891,0.00000000,
13:21:21:895,0.0744,0.4295,1.0780,-1.9253,-0.7768,-1.3803,-0.2338,-0.0806,1.3748,51.0300,50.37562931,16.28175891,0.00000000,
13:21:21:904,0.0744,0.4295,1.0780,-1.9253,-0.7768,-1.3803,0.1927,1.0562,0.8732,51.0300,50.37562931,16.28175891,0.00000000,
13:21:21:920,0.0744,0.4295,1.0780,1.0900,-0.7866,1.9411,0.1927,1.0562,0.8732,51.0300,50.37562931,16.28175891,0.00000000,
13:21:21:925,0.0744,0.4295,1.0780,1.0900,-0.7866,1.9411,0.1927,1.0562,0.8732,45.9675,50.37562931,16.28175891,0.00000000,
13:21:21:966,-0.0693,0.4087,0.6257,1.0900,-0.7866,1.9411,0.1927,1.0562,0.8732,45.9675,50.37562931,16.28175891,0.00000000,
13:21:21:972,-0.0693,0.4087,0.6257,1.0900,-0.7866,1.9411,0.5234,0.7535,0.8267,45.9675,50.37562931,16.28175891,0.00000000,
13:21:21:987,-0.0693,0.4087,0.6257,0.3006,-1.3331,0.4617,0.5234,0.7535,0.8267,45.9675,50.37562931,16.28175891,0.00000000,
13:21:22:031,-0.0331,0.4540,0.5986,0.3006,-1.3331,0.4617,0.5234,0.7535,0.8267,45.9675,50.37562931,16.28175891,0.00000000,
13:21:22:038,-0.0331,0.4540,0.5986,0.3006,-1.3331,0.4617,-0.0386,0.3662,0.7769,45.9675,50.37562931,16.28175891,0.00000000,
13:21:22:056,-0.0331,0.4540,0.5986,-0.2944,-1.1484,-2.6454,-0.0386,0.3662,0.7769,45.9675,50.37562931,16.28175891,0.00000000,
13:21:22:086,-0.0331,0.4540,0.5986,-0.2944,-1.1484,-2.6454,-0.0386,0.3662,0.7769,41.9850,50.37562931,16.28175891,0.00000000,
13:21:22:099,-0.0430,0.4989,0.7309,-0.2944,-1.1484,-2.6454,-0.0386,0.3662,0.7769,41.9850,50.37562931,16.28175891,0.00000000,
13:21:22:106,-0.0430,0.4989,0.7309,-0.2944,-1.1484,-2.6454,-0.0519,0.2795,0.6814,41.9850,50.37562931,16.28175891,0.00000000,
13:21:22:125,-0.0430,0.4989,0.7309,-0.0504,-0.5942,-1.3373,-0.0519,0.2795,0.6814,41.9850,50.37562931,16.28175891,0.00000000,
13:21:22:166,-0.0303,0.5863,0.7884,-0.0504,-0.5942,-1.3373,-0.0519,0.2795,0.6814,41.9850,50.37562931,16.28175891,0.00000000,
13:21:22:175,-0.0303,0.5863,0.7884,-0.0504,-0.5942,-1.3373,-0.2553,-0.2039,0.6866,41.9850,50.37562931,16.28175891,0.00000000,
13:21:22:192,-0.0303,0.5863,0.7884,-0.6292,0.1269,-0.7386,-0.2553,-0.2039,0.6866,41.9850,50.37562931,16.28175891,0.00000000,
13:21:22:234,0.1701,0.5993,1.2708,-0.6292,0.1269,-0.7386,-0.2553,-0.2039,0.6866,41.9850,50.37562931,16.28175891,0.00000000,
13:21:22:242,0.1701,0.5993,1.2708,-0.6292,0.1269,-0.7386,-0.7414,-0.2531,0.4943,41.9850,50.37562931,16.28175891,0.00000000,
13:21:22:247,0.1701,0.5993,1.2708,-0.6292,0.1269,-0.7386,-0.7414,-0.2531,0.4943,39.0150,50.37562931,16.28175891,0.00000000,
13:21:22:260,0.1701,0.5993,1.2708,-0.0636,1.4115,0.6729,-0.7414,-0.2531,0.4943,39.0150,50.37562931,16.28175891,0.00000000,
13:21:22:302,0.0537,0.5154,1.1257,-0.0636,1.4115,0.6729,-0.7414,-0.2531,0.4943,39.0150,50.37562931,16.28175891,0.00000000,
13:21:22:312,0.0537,0.5154,1.1257,-0.0636,1.4115,0.6729,0.4850,0.5864,0.7107,39.0150,50.37562931,16.28175891,0.00000000,
13:21:22:329,0.0537,0.5154,1.1257,1.3313,-0.0012,4.7770,0.4850,0.5864,0.7107,39.0150,50.37562931,16.28175891,0.00000000,
13:21:22:369,0.1463,0.5568,0.8081,1.3313,-0.0012,4.7770,0.4850,0.5864,0.7107,39.0150,50.37562931,16.28175891,0.00000000,
13:21:22:377,0.1463,0.5568,0.8081,1.3313,-0.0012,4.7770,0.4261,-0.0455,0.9291,39.0150,50.37562931,16.28175891,0.00000000,
13:21:22:395,0.1463,0.5568,0.8081,-0.2186,-0.0822,0.7221,0.4261,-0.0455,0.9291,39.0150,50.37562931,16.28175891,0.00000000,
13:21:22:405,0.1463,0.5568,0.8081,-0.2186,-0.0822,0.7221,0.4261,-0.0455,0.9291,36.9900,50.37562931,16.28175891,0.00000000,
13:21:22:437,0.1299,0.5667,0.6997,-0.2186,-0.0822,0.7221,0.4261,-0.0455,0.9291,36.9900,50.37562931,16.28175891,0.00000000,
13:21:22:445,0.1299,0.5667,0.6997,-0.2186,-0.0822,0.7221,-0.2213,0.5249,0.5194,36.9900,50.37562931,16.28175891,0.00000000,
13:21:22:464,0.1299,0.5667,0.6997,1.0345,0.5366,-1.2044,-0.2213,0.5249,0.5194,36.9900,50.37562931,16.28175891,0.00000000,
13:21:22:505,-0.0237,0.4905,0.6633,1.0345,0.5366,-1.2044,-0.2213,0.5249,0.5194,36.9900,50.37562931,16.28175891,0.00000000,
13:21:22:513,-0.0237,0.4905,0.6633,1.0345,0.5366,-1.2044,-0.2094,0.7669,0.5567,36.9900,50.37562931,16.28175891,0.00000000,
13:21:22:529,-0.0237,0.4905,0.6633,0.2055,0.1171,-1.7369,-0.2094,0.7669,0.5567,36.9900,50.37562931,16.28175891,0.00000000,
13:21:22:566,-0.0237,0.4905,0.6633,0.2055,0.1171,-1.7369,-0.2094,0.7669,0.5567,38.0025,50.37562931,16.28175891,0.00000000,
13:21:22:573,-0.0419,0.5104,0.6585,0.2055,0.1171,-1.7369,-0.2094,0.7669,0.5567,38.0025,50.37562931,16.28175891,0.00000000,
13:21:22:581,-0.0419,0.5104,0.6585,0.2055,0.1171,-1.7369,0.1875,0.4681,0.7847,38.0025,50.37562931,16.28175891,0.00000000,
13:21:22:597,-0.0419,0.5104,0.6585,-0.8278,-0.3751,-1.7346,0.1875,0.4681,0.7847,38.0025,50.37562931,16.28175891,0.00000000,
13:21:22:641,-0.0568,0.5881,0.7827,-0.8278,-0.3751,-1.7346,0.1875,0.4681,0.7847,38.0025,50.37562931,16.28175891,0.00000000,
13:21:22:649,-0.0568,0.5881,0.7827,-0.8278,-0.3751,-1.7346,0.1107,0.4539,0.7590,38.0025,50.37562931,16.28175891,0.00000000,
13:21:22:666,-0.0568,0.5881,0.7827,-0.7091,0.1319,-1.3359,0.1107,0.4539,0.7590,38.0025,50.37562931,16.28175891,0.00000000,
13:21:22:708,0.0321,0.6381,1.1740,-0.7091,0.1319,-1.3359,0.1107,0.4539,0.7590,38.0025,50.37562931,16.28175891,0.00000000,
13:21:22:717,0.0321,0.6381,1.1740,-0.7091,0.1319,-1.3359,-0.0180,0.4082,0.7625,38.0025,50.37562931,16.28175891,0.00000000,
13:21:22:734,0.0321,0.6381,1.1740,-0.7641,0.8044,0.8290,-0.0180,0.4082,0.7625,38.0025,50.37562931,16.28175891,0.00000000,
13:21:22:776,0.1004,0.5196,1.1102,-0.7641,0.8044,0.8290,-0.0180,0.4082,0.7625,38.0025,50.37562931,16.28175891,0.00000000,
13:21:22:784,0.1004,0.5196,1.1102,-0.7641,0.8044,0.8290,0.2039,1.1107,0.5360,38.0025,50.37562931,16.28175891,0.00000000,
13:21:22:800,0.1004,0.5196,1.1102,1.1035,0.5055,3.6237,0.2039,1.1107,0.5360,38.0025,50.37562931,16.28175891,0.00000000,
13:21:22:845,-0.1326,0.4563,0.7405,1.1035,0.5055,3.6237,0.2039,1.1107,0.5360,38.0025,50.37562931,16.28175891,0.00000000,
13:21:22:852,-0.1326,0.4563,0.7405,1.1035,0.5055,3.6237,0.2097,1.0704,0.6593,38.0025,50.37562931,16.28175891,0.00000000,
13:21:22:869,-0.1326,0.4563,0.7405,0.5871,-0.8538,0.9470,0.2097,1.0704,0.6593,38.0025,50.37562931,16.28175891,0.00000000,
13:21:22:885,-0.1326,0.4563,0.7405,0.5871,-0.8538,0.9470,0.2097,1.0704,0.6593,39.0150,50.37562931,16.28175891,0.00000000,
13:21:22:912,0.0129,0.4706,0.9095,0.5871,-0.8538,0.9470,0.2097,1.0704,0.6593,39.0150,50.37562931,16.28175891,0.00000000,
13:21:22:920,0.0129,0.4706,0.9095,0.5871,-0.8538,0.9470,-0.2540,0.0286,0.8825,39.0150,50.37562931,16.28175891,0.00000000,
13:21:22:937,0.0129,0.4706,0.9095,-1.2658,-0.5947,-1.3271,-0.2540,0.0286,0.8825,39.0150,50.37562931,16.28175891,0.00000000,
13:21:22:979,0.1063,0.4517,0.9749,-1.2658,-0.5947,-1.3271,-0.2540,0.0286,0.8825,39.0150,50.37562931,16.28175891,0.00000000,
13:21:22:987,0.1063,0.4517,0.9749,-1.2658,-0.5947,-1.3271,0.1385,0.5389,0.4320,39.0150,50.37562931,16.28175891,0.00000000,
13:21:23:004,0.1063,0.4517,0.9749,1.2151,-0.7090,1.3818,0.1385,0.5389,0.4320,39.0150,50.37562931,16.28175891,0.00000000,
13:21:23:047,0.1063,0.4517,0.9749,1.2151,-0.7090,1.3818,0.1385,0.5389,0.4320,40.9725,50.37562931,16.28175891,0.00000000,
13:21:23:052,0.0261,0.4223,0.6759,1.2151,-0.7090,1.3818,0.1385,0.5389,0.4320,40.9725,50.37562931,16.28175891,0.00000000,
13:21:23:056,0.0261,0.4223,0.6759,1.2151,-0.7090,1.3818,0.3144,0.4316,0.2393,40.9725,50.37562931,16.28175891,0.00000000,
13:21:23:073,0.0261,0.4223,0.6759,0.8476,-1.0137,0.0433,0.3144,0.4316,0.2393,40.9725,50.37562931,16.28175891,0.00000000,
13:21:23:116,-0.0280,0.4631,0.5878,0.8476,-1.0137,0.0433,0.3144,0.4316,0.2393,40.9725,50.37562931,16.28175891,0.00000000,
13:21:23:124,-0.0280,0.4631,0.5878,0.8476,-1.0137,0.0433,-0.0701,0.1217,0.1277,40.9725,50.37562931,16.28175891,0.00000000,
13:21:23:141,-0.0280,0.4631,0.5878,0.2777,-0.8733,-2.2992,-0.0701,0.1217,0.1277,40.9725,50.37562931,16.28175891,0.00000000,
13:21:23:184,-0.0545,0.5135,0.6748,0.2777,-0.8733,-2.2992,-0.0701,0.1217,0.1277,40.9725,50.37562931,16.28175891,0.00000000,
13:21:23:191,-0.0545,0.5135,0.6748,0.2777,-0.8733,-2.2992,-0.1688,-0.2028,0.0637,40.9725,50.37562931,16.28175891,0.00000000,
13:21:23:205,-0.0545,0.5135,0.6748,0.2777,-0.8733,-2.2992,-0.1688,-0.2028,0.0637,41.9850,50.37562931,16.28175891,0.00000000,
13:21:23:212,-0.0545,0.5135,0.6748,-0.3672,-0.2416,-1.8886,-0.1688,-0.2028,0.0637,41.9850,50.37562931,16.28175891,0.00000000,
13:21:23:251,-0.0508,0.5404,0.7958,-0.3672,-0.2416,-1.8886,-0.1688,-0.2028,0.0637,41.9850,50.37562931,16.28175891,0.00000000,
13:21:23:261,-0.0508,0.5404,0.7958,-0.3672,-0.2416,-1.8886,-0.6263,-0.3965,-0.0046,41.9850,50.37562931,16.28175891,0.00000000,
13:21:23:277,-0.0508,0.5404,0.7958,-0.6132,0.5576,-1.3084,-0.6263,-0.3965,-0.0046,41.9850,50.37562931,16.28175891,0.00000000,
13:21:23:318,0.0378,0.5934,1.1291,-0.6132,0.5576,-1.3084,-0.6263,-0.3965,-0.0046,41.9850,50.37562931,16.28175891,0.00000000,
13:21:23:327,0.0378,0.5934,1.1291,-0.6132,0.5576,-1.3084,-0.9241,-0.5794,0.0524,41.9850,50.37562931,16.28175891,0.00000000,
13:21:23:345,0.0378,0.5934,1.1291,-0.7238,1.1935,0.4251,-0.9241,-0.5794,0.0524,41.9850,50.37562931,16.28175891,0.00000000,
13:21:23:365,0.0378,0.5934,1.1291,-0.7238,1.1935,0.4251,-0.9241,-0.5794,0.0524,44.0100,50.37562931,16.28175891,0.00000000,
13:21:23:387,0.1721,0.5049,1.3958,-0.7238,1.1935,0.4251,-0.9241,-0.5794,0.0524,44.0100,50.37562931,16.28175891,0.00000000,
13:21:23:395,0.1721,0.5049,1.3958,-0.7238,1.1935,0.4251,-0.5629,0.1226,-0.1297,44.0100,50.37562931,16.28175891,0.00000000,
13:21:23:412,0.1721,0.5049,1.3958,0.9649,1.4747,3.5696,-0.5629,0.1226,-0.1297,44.0100,50.37562931,16.28175891,0.00000000,
13:21:23:455,0.0454,0.3761,1.0978,0.9649,1.4747,3.5696,-0.5629,0.1226,-0.1297,44.0100,50.37562931,16.28175891,0.00000000,
13:21:23:465,0.0454,0.3761,1.0978,0.9649,1.4747,3.5696,0.3818,0.4255,0.2770,44.0100,50.37562931,16.28175891,0.00000000,
13:21:23:479,0.0454,0.3761,1.0978,0.9874,-0.1721,3.7874,0.3818,0.4255,0.2770,44.0100,50.37562931,16.28175891,0.00000000,
13:21:23:521,0.0662,0.3838,0.6487,0.9874,-0.1721,3.7874,0.3818,0.4255,0.2770,44.0100,50.37562931,16.28175891,0.00000000,
13:21:23:525,0.0662,0.3838,0.6487,0.9874,-0.1721,3.7874,0.3818,0.4255,0.2770,45.0225,50.37562931,16.28175891,0.00000000,
13:21:23:530,0.0662,0.3838,0.6487,0.9874,-0.1721,3.7874,0.9762,-0.0058,0.6428,45.0225,50.37562931,16.28175891,0.00000000,
13:21:23:548,0.0662,0.3838,0.6487,-0.1380,-1.4253,0.1319,0.9762,-0.0058,0.6428,45.0225,50.37562931,16.28175891,0.00000000,
13:21:23:590,0.0712,0.4518,0.4593,-0.1380,-1.4253,0.1319,0.9762,-0.0058,0.6428,45.0225,50.37562931,16.28175891,0.00000000,
13:21:23:598,0.0712,0.4518,0.4593,-0.1380,-1.4253,0.1319,0.2208,-0.1684,0.3810,45.0225,50.37562931,16.28175891,0.00000000,
13:21:23:616,0.0712,0.4518,0.4593,0.0833,-0.7224,-3.4166,0.2208,-0.1684,0.3810,45.0225,50.37562931,16.28175891,0.00000000,
13:21:23:658,-0.0249,0.4513,0.6759,0.0833,-0.7224,-3.4166,0.2208,-0.1684,0.3810,45.0225,50.37562931,16.28175891,0.00000000,
13:21:23:666,-0.0249,0.4513,0.6759,0.0833,-0.7224,-3.4166,-0.6538,0.1793,0.2656,45.0225,50.37562931,16.28175891,0.00000000,
13:21:23:684,-0.0249,0.4513,0.6759,-0.2241,0.0800,-3.4433,-0.6538,0.1793,0.2656,45.0225,50.37562931,16.28175891,0.00000000,
13:21:23:725,-0.0248,0.4565,0.9803,-0.2241,0.0800,-3.4433,-0.6538,0.1793,0.2656,45.0225,50.37562931,16.28175891,0.00000000,
13:21:23:734,-0.0248,0.4565,0.9803,-0.2241,0.0800,-3.4433,-0.4102,0.2862,0.4742,45.0225,50.37562931,16.28175891,0.00000000,
13:21:23:751,-0.0248,0.4565,0.9803,-0.8793,0.1735,-0.5114,-0.4102,0.2862,0.4742,45.0225,50.37562931,16.28175891,0.00000000,
13:21:23:793,-0.0260,0.4872,1.0397,-0.8793,0.1735,-0.5114,-0.4102,0.2862,0.4742,45.0225,50.37562931,16.28175891,0.00000000,
13:21:23:801,-0.0260,0.4872,1.0397,-0.8793,0.1735,-0.5114,0.0727,0.5296,0.6371,45.0225,50.37562931,16.28175891,0.00000000,
13:21:23:819,-0.0260,0.4872,1.0397,-0.4857,0.2481,1.5185,0.0727,0.5296,0.6371,45.0225,50.37562931,16.28175891,0.00000000,
13:21:23:846,-0.0260,0.4872,1.0397,-0.4857,0.2481,1.5185,0.0727,0.5296,0.6371,47.9925,50.37562931,16.28175891,0.00000000,
13:21:23:861,-0.0109,0.5541,1.0274,-0.4857,0.2481,1.5185,0.0727,0.5296,0.6371,47.9925,50.37562931,16.28175891,0.00000000,
13:21:23:870,-0.0109,0.5541,1.0274,-0.4857,0.2481,1.5185,0.1854,0.4704,0.8132,47.9925,50.37562931,16.28175891,0.00000000,
13:21:23:886,-0.0109,0.5541,1.0274,-0.4757,0.4696,1.4607,0.1854,0.4704,0.8132,47.9925,50.37562931,16.28175891,0.00000000,
13:21:23:929,0.1862,0.5305,1.1691,-0.4757,0.4696,1.4607,0.1854,0.4704,0.8132,47.9925,50.37562931,16.28175891,0.00000000,
13:21:23:937,0.1862,0.5305,1.1691,-0.4757,0.4696,1.4607,-0.0910,0.3073,0.6907,47.9925,50.37562931,16.28175891,0.00000000,
13:21:23:954,0.1862,0.5305,1.1691,0.2047,1.1894,1.4905,-0.0910,0.3073,0.6907,47.9925,50.37562931,16.28175891,0.00000000,
13:21:23:996,0.0236,0.4487,0.8927,0.2047,1.1894,1.4905,-0.0910,0.3073,0.6907,47.9925,50.37562931,16.28175891,0.00000000,
13:21:24:004,0.0236,0.4487,0.8927,0.2047,1.1894,1.4905,0.1773,0.8294,0.5374,47.9925,50.37562931,16.28175891,0.00000000,
13:21:24:023,0.0236,0.4487,0.8927,1.5831,-0.0307,1.8734,0.1773,0.8294,0.5374,47.9925,50.37562931,16.28175891,0.00000000,
13:21:24:065,0.0694,0.4218,0.9132,1.5831,-0.0307,1.8734,0.1773,0.8294,0.5374,47.9925,50.37562931,16.28175891,0.00000000,
13:21:24:073,0.0694,0.4218,0.9132,1.5831,-0.0307,1.8734,-0.3256,-0.0334,0.6151,47.9925,50.37562931,16.28175891,0.00000000,
13:21:24:091,0.0694,0.4218,0.9132,-0.4299,0.0626,-0.9411,-0.3256,-0.0334,0.6151,47.9925,50.37562931,16.28175891,0.00000000,
13:21:24:132,0.1060,0.3460,0.8979,-0.4299,0.0626,-0.9411,-0.3256,-0.0334,0.6151,47.9925,50.37562931,16.28175891,0.00000000,
13:21:24:142,0.1060,0.3460,0.8979,-0.4299,0.0626,-0.9411,-0.4525,0.0012,0.2873,47.9925,50.37562931,16.28175891,0.00000000,
13:21:24:158,0.1060,0.3460,0.8979,0.6245,-0.2101,-0.0732,-0.4525,0.0012,0.2873,47.9925,50.37562931,16.28175891,0.00000000,
13:21:24:165,0.1060,0.3460,0.8979,0.6245,-0.2101,-0.0732,-0.4525,0.0012,0.2873,50.0175,50.37562931,16.28175891,0.00000000,
13:21:24:199,0.0347,0.2595,0.7873,0.6245,-0.2101,-0.0732,-0.4525,0.0012,0.2873,50.0175,50.37562931,16.28175891,0.00000000,
13:21:24:210,0.0347,0.2595,0.7873,0.6245,-0.2101,-0.0732,-0.3329,0.2793,0.0808,50.0175,50.37562931,16.28175891,0.00000000,
13:21:24:226,0.0347,0.2595,0.7873,0.5295,-0.7482,-0.6502,-0.3329,0.2793,0.0808,50.0175,50.37562931,16.28175891,0.00000000,
13:21:24:268,0.0095,0.2769,0.7225,0.5295,-0.7482,-0.6502,-0.3329,0.2793,0.0808,50.0175,50.37562931,16.28175891,0.00000000,
13:21:24:276,0.0095,0.2769,0.7225,0.5295,-0.7482,-0.6502,-0.0883,-0.1319,0.0857,50.0175,50.37562931,16.28175891,0.00000000,
13:21:24:294,0.0095,0.2769,0.7225,-0.3860,-1.1102,-1.8494,-0.0883,-0.1319,0.0857,50.0175,50.37562931,16.28175891,0.00000000,
13:21:24:335,0.0144,0.3298,0.7799,-0.3860,-1.1102,-1.8494,-0.0883,-0.1319,0.0857,50.0175,50.37562931,16.28175891,0.00000000,
13:21:24:345,0.0144,0.3298,0.7799,-0.3860,-1.1102,-1.8494,0.1231,-0.1093,0.0997,50.0175,50.37562931,16.28175891,0.00000000,
13:21:24:361,0.0144,0.3298,0.7799,-0.3718,-0.7872,-1.4679,0.1231,-0.1093,0.0997,50.0175,50.37562931,16.28175891,0.00000000,
13:21:24:404,0.0391,0.3813,0.8306,-0.3718,-0.7872,-1.4679,0.1231,-0.1093,0.0997,50.0175,50.37562931,16.28175891,0.00000000,
13:21:24:412,0.0391,0.3813,0.8306,-0.3718,-0.7872,-1.4679,0.1897,-0.0939,-0.0199,50.0175,50.37562931,16.28175891,0.00000000,
13:21:24:429,0.0391,0.3813,0.8306,-0.2123,-0.2243,-0.7809,0.1897,-0.0939,-0.0199,50.0175,50.37562931,16.28175891,0.00000000,
13:21:24:473,0.0794,0.3957,0.8799,-0.2123,-0.2243,-0.7809,0.1897,-0.0939,-0.0199,50.0175,50.37562931,16.28175891,0.00000000,
13:21:24:479,0.0794,0.3957,0.8799,-0.2123,-0.2243,-0.7809,-0.0318,-0.1781,-0.1243,50.0175,50.37562931,16.28175891,0.00000000,
13:21:24:497,0.0794,0.3957,0.8799,-0.1057,0.1853,-0.3630,-0.0318,-0.1781,-0.1243,50.0175,50.37562931,16.28175891,0.00000000,
13:21:24:540,0.1116,0.3799,1.0504,-0.1057,0.1853,-0.3630,-0.0318,-0.1781,-0.1243,50.0175,50.37562931,16.28175891,0.00000000,
13:21:24:548,0.1116,0.3799,1.0504,-0.1057,0.1853,-0.3630,-0.0870,-0.1197,-0.1413,50.0175,50.37562931,16.28175891,0.00000000,
13:21:24:564,0.1116,0.3799,1.0504,0.2545,0.1556,0.4322,-0.0870,-0.1197,-0.1413,50.0175,50.37562931,16.28175891,0.00000000,
13:21:24:606,0.1778,0.3625,1.0544,0.2545,0.1556,0.4322,-0.0870,-0.1197,-0.1413,50.0175,50.37562931,16.28175891,0.00000000,
13:21:24:616,0.1778,0.3625,1.0544,0.2545,0.1556,0.4322,0.4220,-0.1880,-0.0816,50.0175,50.37562931,16.28175891,0.00000000,
13:21:24:632,0.1778,0.3625,1.0544,0.4965,-0.3603,1.8673,0.4220,-0.1880,-0.0816,50.0175,50.37562931,16.28175891,0.00000000,
13:21:24:675,0.2929,0.4075,0.9753,0.4965,-0.3603,1.8673,0.4220,-0.1880,-0.0816,50.0175,50.37562931,16.28175891,0.00000000,
13:21:24:684,0.2929,0.4075,0.9753,0.4965,-0.3603,1.8673,-0.1920,-0.9420,-0.4346,50.0175,50.37562931,16.28175891,0.00000000,
13:21:24:700,0.2929,0.4075,0.9753,0.6859,0.1540,0.8701,-0.1920,-0.9420,-0.4346,50.0175,50.37562931,16.28175891,0.00000000,
13:21:24:743,0.2045,0.2497,1.3203,0.6859,0.1540,0.8701,-0.1920,-0.9420,-0.4346,50.0175,50.37562931,16.28175891,0.00000000,
13:21:24:751,0.2045,0.2497,1.3203,0.6859,0.1540,0.8701,-1.2142,-0.1312,-0.6758,50.0175,50.37562931,16.28175891,0.00000000,
13:21:24:767,0.2045,0.2497,1.3203,1.7754,0.5314,1.4514,-1.2142,-0.1312,-0.6758,50.0175,50.37562931,16.28175891,0.00000000,
13:21:24:805,0.2045,0.2497,1.3203,1.7754,0.5314,1.4514,-1.2142,-0.1312,-0.6758,51.9750,50.37562931,16.28175891,0.00000000,
13:21:24:811,0.0072,0.2620,1.1021,1.7754,0.5314,1.4514,-1.2142,-0.1312,-0.6758,51.9750,50.37562931,16.28175891,0.00000000,
13:21:24:819,0.0072,0.2620,1.1021,1.7754,0.5314,1.4514,-0.5229,0.8102,-0.0127,51.9750,50.37562931,16.28175891,0.00000000,
13:21:24:836,0.0072,0.2620,1.1021,0.1841,-0.5864,2.7574,-0.5229,0.8102,-0.0127,51.9750,50.37562931,16.28175891,0.00000000,
13:21:24:877,-0.0161,0.3681,0.6728,0.1841,-0.5864,2.7574,-0.5229,0.8102,-0.0127,51.9750,50.37562931,16.28175891,0.00000000,
13:21:24:887,-0.0161,0.3681,0.6728,0.1841,-0.5864,2.7574,0.8079,0.4030,0.4884,51.9750,50.37562931,16.28175891,0.00000000,
13:21:24:905,-0.0161,0.3681,0.6728,-0.8958,-0.5301,-0.2649,0.8079,0.4030,0.4884,51.9750,50.37562931,16.28175891,0.00000000,
13:21:24:946,0.0045,0.4738,0.4847,-0.8958,-0.5301,-0.2649,0.8079,0.4030,0.4884,51.9750,50.37562931,16.28175891,0.00000000,
13:21:24:954,0.0045,0.4738,0.4847,-0.8958,-0.5301,-0.2649,0.6292,-0.2434,0.3036,51.9750,50.37562931,16.28175891,0.00000000,
13:21:24:965,0.0045,0.4738,0.4847,-0.8958,-0.5301,-0.2649,0.6292,-0.2434,0.3036,51.0300,50.37562931,16.28175891,0.00000000,
13:21:24:971,0.0045,0.4738,0.4847,-0.9154,0.3991,-3.6952,0.6292,-0.2434,0.3036,51.0300,50.37562931,16.28175891,0.00000000,
13:21:25:014,-0.0621,0.5174,0.7941,-0.9154,0.3991,-3.6952,0.6292,-0.2434,0.3036,51.0300,50.37562931,16.28175891,0.00000000,
13:21:25:021,-0.0621,0.5174,0.7941,-0.9154,0.3991,-3.6952,0.0480,-0.4096,0.1231,51.0300,50.37562931,16.28175891,0.00000000,
13:21:25:039,-0.0621,0.5174,0.7941,-1.0960,1.0650,-3.2248,0.0480,-0.4096,0.1231,51.0300,50.37562931,16.28175891,0.00000000,
13:21:25:081,-0.0505,0.4529,1.1207,-1.0960,1.0650,-3.2248,0.0480,-0.4096,0.1231,51.0300,50.37562931,16.28175891,0.00000000,
13:21:25:090,-0.0505,0.4529,1.1207,-1.0960,1.0650,-3.2248,0.3732,-0.0959,0.4592,51.0300,50.37562931,16.28175891,0.00000000,
13:21:25:107,-0.0505,0.4529,1.1207,-1.7585,0.6988,0.6996,0.3732,-0.0959,0.4592,51.0300,50.37562931,16.28175891,0.00000000,
13:21:25:126,-0.0505,0.4529,1.1207,-1.7585,0.6988,0.6996,0.3732,-0.0959,0.4592,54.0000,50.37562931,16.28175891,0.00000000,
13:21:25:150,0.1369,0.4540,1.1641,-1.7585,0.6988,0.6996,0.3732,-0.0959,0.4592,54.0000,50.37562931,16.28175891,0.00000000,
13:21:25:157,0.1369,0.4540,1.1641,-1.7585,0.6988,0.6996,-0.0513,0.4679,0.5573,54.0000,50.37562931,16.28175891,0.00000000,
13:21:25:176,0.1369,0.4540,1.1641,-0.2988,0.4227,2.3785,-0.0513,0.4679,0.5573,54.0000,50.37562931,16.28175891,0.00000000,
13:21:25:217,0.1792,0.3073,1.2325,-0.2988,0.4227,2.3785,-0.0513,0.4679,0.5573,54.0000,50.37562931,16.28175891,0.00000000,
13:21:25:226,0.1792,0.3073,1.2325,-0.2988,0.4227,2.3785,-0.0777,1.1611,0.6135,54.0000,50.37562931,16.28175891,0.00000000,
13:21:25:243,0.1792,0.3073,1.2325,1.4830,-0.0408,2.6572,-0.0777,1.1611,0.6135,54.0000,50.37562931,16.28175891,0.00000000,
13:21:25:285,0.0609,0.3553,0.7949,1.4830,-0.0408,2.6572,-0.0777,1.1611,0.6135,54.0000,50.37562931,16.28175891,0.00000000,
13:21:25:291,0.0609,0.3553,0.7949,1.4830,-0.0408,2.6572,-0.0777,1.1611,0.6135,56.0250,50.37562931,16.28175891,0.00000000,
13:21:25:295,0.0609,0.3553,0.7949,1.4830,-0.0408,2.6572,0.0686,0.7814,0.6683,56.0250,50.37562931,16.28175891,0.00000000,
13:21:25:310,0.0609,0.3553,0.7949,0.8511,-0.8895,0.9999,0.0686,0.7814,0.6683,56.0250,50.37562931,16.28175891,0.00000000,
13:21:25:353,0.1713,0.3463,0.9747,0.8511,-0.8895,0.9999,0.0686,0.7814,0.6683,56.0250,50.37562931,16.28175891,0.00000000,
13:21:25:360,0.1713,0.3463,0.9747,0.8511,-0.8895,0.9999,-0.5150,-0.1019,0.2834,56.0250,50.37562931,16.28175891,0.00000000,
13:21:25:378,0.1713,0.3463,0.9747,0.6157,0.0327,-1.5620,-0.5150,-0.1019,0.2834,56.0250,50.37562931,16.28175891,0.00000000,
13:21:25:421,0.0473,0.2811,0.9298,0.6157,0.0327,-1.5620,-0.5150,-0.1019,0.2834,56.0250,50.37562931,16.28175891,0.00000000,
13:21:25:429,0.0473,0.2811,0.9298,0.6157,0.0327,-1.5620,-0.1600,0.1778,-0.0203,56.0250,50.37562931,16.28175891,0.00000000,
13:21:25:446,0.0473,0.2811,0.9298,0.6157,0.0327,-1.5620,-0.1600,0.1778,-0.0203,58.9950,50.37562931,16.28175891,0.00000000,
13:21:25:450,0.0473,0.2811,0.9298,1.0969,-0.3182,0.4756,-0.1600,0.1778,-0.0203,58.9950,50.37562931,16.28175891,0.00000000,
13:21:25:488,-0.0071,0.2617,0.8178,1.0969,-0.3182,0.4756,-0.1600,0.1778,-0.0203,58.9950,50.37562931,16.28175891,0.00000000,
13:21:25:497,-0.0071,0.2617,0.8178,1.0969,-0.3182,0.4756,0.2659,0.0519,0.0273,58.9950,50.37562931,16.28175891,0.00000000,
13:21:25:514,-0.0071,0.2617,0.8178,-0.2931,-0.9399,-0.7733,0.2659,0.0519,0.0273,58.9950,50.37562931,16.28175891,0.00000000,
13:21:25:556,-0.0320,0.2851,0.7731,-0.2931,-0.9399,-0.7733,0.2659,0.0519,0.0273,58.9950,50.37562931,16.28175891,0.00000000,
13:21:25:564,-0.0320,0.2851,0.7731,-0.2931,-0.9399,-0.7733,0.3882,0.1289,0.0605,58.9950,50.37562931,16.28175891,0.00000000,
13:21:25:581,-0.0320,0.2851,0.7731,-0.3894,-1.0752,-1.2482,0.3882,0.1289,0.0605,58.9950,50.37562931,16.28175891,0.00000000,
13:21:25:607,-0.0320,0.2851,0.7731,-0.3894,-1.0752,-1.2482,0.3882,0.1289,0.0605,61.0200,50.37562931,16.28175891,0.00000000,
13:21:25:625,-0.0233,0.3180,0.8403,-0.3894,-1.0752,-1.2482,0.3882,0.1289,0.0605,61.0200,50.37562931,16.28175891,0.00000000,
13:21:25:632,-0.0233,0.3180,0.8403,-0.3894,-1.0752,-1.2482,0.2454,-0.1277,0.0418,61.0200,50.37562931,16.28175891,0.00000000,
13:21:25:648,-0.0233,0.3180,0.8403,-0.6705,-0.7538,-1.2125,0.2454,-0.1277,0.0418,61.0200,50.37562931,16.28175891,0.00000000,
13:21:25:692,0.0082,0.3472,0.9764,-0.6705,-0.7538,-1.2125,0.2454,-0.1277,0.0418,61.0200,50.37562931,16.28175891,0.00000000,
13:21:25:700,0.0082,0.3472,0.9764,-0.6705,-0.7538,-1.2125,0.0315,-0.2613,0.0133,61.0200,50.37562931,16.28175891,0.00000000,
13:21:25:717,0.0082,0.3472,0.9764,-0.4990,-0.3942,-0.0339,0.0315,-0.2613,0.0133,61.0200,50.37562931,16.28175891,0.00000000,
13:21:25:759,0.1505,0.3572,1.1967,-0.4990,-0.3942,-0.0339,0.0315,-0.2613,0.0133,61.0200,50.37562931,16.28175891,0.00000000,
13:21:25:766,0.1505,0.3572,1.1967,-0.4990,-0.3942,-0.0339,0.0315,-0.2613,0.0133,66.0150,50.37562931,16.28175891,0.00000000,
13:21:25:768,0.1505,0.3572,1.1967,-0.4990,-0.3942,-0.0339,-0.5171,-0.6194,0.1503,66.0150,50.37562931,16.28175891,0.00000000,
13:21:25:785,0.1505,0.3572,1.1967,-0.4182,0.2328,0.9646,-0.5171,-0.6194,0.1503,66.0150,50.37562931,16.28175891,0.00000000,
13:21:25:827,0.1553,0.3216,1.1729,-0.4182,0.2328,0.9646,-0.5171,-0.6194,0.1503,66.0150,50.37562931,16.28175891,0.00000000,
13:21:25:836,0.1553,0.3216,1.1729,-0.4182,0.2328,0.9646,0.0470,0.1388,0.2304,66.0150,50.37562931,16.28175891,0.00000000,
13:21:25:853,0.1553,0.3216,1.1729,1.1614,-0.1883,3.0705,0.0470,0.1388,0.2304,66.0150,50.37562931,16.28175891,0.00000000,
13:21:25:895,0.1754,0.3882,0.9282,1.1614,-0.1883,3.0705,0.0470,0.1388,0.2304,66.0150,50.37562931,16.28175891,0.00000000,
13:21:25:904,0.1754,0.3882,0.9282,1.1614,-0.1883,3.0705,0.2899,-0.4259,0.4169,66.0150,50.37562931,16.28175891,0.00000000,
13:21:25:919,0.1754,0.3882,0.9282,-0.0028,-0.1092,0.8830,0.2899,-0.4259,0.4169,66.0150,50.37562931,16.28175891,0.00000000,
13:21:25:927,0.1754,0.3882,0.9282,-0.0028,-0.1092,0.8830,0.2899,-0.4259,0.4169,72.9675,50.37562931,16.28175891,0.00000000,
13:21:25:963,0.1294,0.4264,0.8222,-0.0028,-0.1092,0.8830,0.2899,-0.4259,0.4169,72.9675,50.37562931,16.28175891,0.00000000,
13:21:25:970,0.1294,0.4264,0.8222,-0.0028,-0.1092,0.8830,0.0945,-0.0915,0.2094,72.9675,50.37562931,16.28175891,0.00000000,
13:21:25:987,0.1294,0.4264,0.8222,0.4718,0.4166,-0.6792,0.0945,-0.0915,0.2094,72.9675,50.37562931,16.28175891,0.00000000,
13:21:26:031,0.0096,0.4380,0.7382,0.4718,0.4166,-0.6792,0.0945,-0.0915,0.2094,72.9675,50.37562931,16.28175891,0.00000000,
13:21:26:041,0.0096,0.4380,0.7382,0.4718,0.4166,-0.6792,0.2173,0.2500,0.2851,72.9675,50.37562931,16.28175891,0.00000000,
13:21:26:056,0.0096,0.4380,0.7382,-0.3980,0.4005,-1.3571,0.2173,0.2500,0.2851,72.9675,50.37562931,16.28175891,0.00000000,
13:21:26:085,0.0096,0.4380,0.7382,-0.3980,0.4005,-1.3571,0.2173,0.2500,0.2851,78.9750,50.37562931,16.28175891,0.00000000,
13:21:26:099,-0.1157,0.4750,0.7163,-0.3980,0.4005,-1.3571,0.2173,0.2500,0.2851,78.9750,50.37562931,16.28175891,0.00000000,
13:21:26:107,-0.1157,0.4750,0.7163,-0.3980,0.4005,-1.3571,0.3308,0.0547,0.4953,78.9750,50.37562931,16.28175891,0.00000000,
13:21:26:124,-0.1157,0.4750,0.7163,-1.5926,0.4186,-1.9120,0.3308,0.0547,0.4953,78.9750,50.37562931,16.28175891,0.00000000,
13:21:26:167,-0.0809,0.4533,0.8965,-1.5926,0.4186,-1.9120,0.3308,0.0547,0.4953,78.9750,50.37562931,16.28175891,0.00000000,
13:21:26:175,-0.0809,0.4533,0.8965,-1.5926,0.4186,-1.9120,0.5444,0.0661,0.6316,78.9750,50.37562931,16.28175891,0.00000000,
13:21:26:192,-0.0809,0.4533,0.8965,-2.0938,0.2926,-0.8097,0.5444,0.0661,0.6316,78.9750,50.37562931,16.28175891,0.00000000,
13:21:26:234,-0.0787,0.4251,0.9631,-2.0938,0.2926,-0.8097,0.5444,0.0661,0.6316,78.9750,50.37562931,16.28175891,0.00000000,
13:21:26:241,-0.0787,0.4251,0.9631,-2.0938,0.2926,-0.8097,0.1697,0.4612,0.7491,78.9750,50.37562931,16.28175891,0.00000000,
13:21:26:244,-0.0787,0.4251,0.9631,-2.0938,0.2926,-0.8097,0.1697,0.4612,0.7491,84.9825,50.37562931,16.28175891,0.00000000,
13:21:26:259,-0.0787,0.4251,0.9631,-1.4512,0.0490,0.2982,0.1697,0.4612,0.7491,84.9825,50.37562931,16.28175891,0.00000000,
13:21:26:302,-0.0471,0.3451,1.1747,-1.4512,0.0490,0.2982,0.1697,0.4612,0.7491,84.9825,50.37562931,16.28175891,0.00000000,
13:21:26:311,-0.0471,0.3451,1.1747,-1.4512,0.0490,0.2982,-0.1503,1.0586,1.1912,84.9825,50.37562931,16.28175891,0.00000000,
13:21:26:327,-0.0471,0.3451,1.1747,-0.9655,-0.2282,1.5365,-0.1503,1.0586,1.1912,84.9825,50.37562931,16.28175891,0.00000000,
13:21:26:369,0.0005,0.3329,1.0893,-0.9655,-0.2282,1.5365,-0.1503,1.0586,1.1912,84.9825,50.37562931,16.28175891,0.00000000,
13:21:26:379,0.0005,0.3329,1.0893,-0.9655,-0.2282,1.5365,-0.0270,1.2170,1.7833,84.9825,50.37562931,16.28175891,0.00000000,
13:21:26:395,0.0005,0.3329,1.0893,-0.4351,-0.7763,2.2215,-0.0270,1.2170,1.7833,84.9825,50.37562931,16.28175891,0.00000000,
13:21:26:406,0.0005,0.3329,1.0893,-0.4351,-0.7763,2.2215,-0.0270,1.2170,1.7833,94.9725,50.37562931,16.28175891,0.00000000,
13:21:26:437,-0.0294,0.4108,0.8743,-0.4351,-0.7763,2.2215,-0.0270,1.2170,1.7833,94.9725,50.37562931,16.28175891,0.00000000,
13:21:26:445,-0.0294,0.4108,0.8743,-0.4351,-0.7763,2.2215,0.0683,0.9519,1.7738,94.9725,50.37562931,16.28175891,0.00000000,
13:21:26:464,-0.0294,0.4108,0.8743,0.1169,-0.5134,0.5446,0.0683,0.9519,1.7738,94.9725,50.37562931,16.28175891,0.00000000,
13:21:26:507,0.0229,0.3750,1.0961,0.1169,-0.5134,0.5446,0.0683,0.9519,1.7738,94.9725,50.37562931,16.28175891,0.00000000,
13:21:26:514,0.0229,0.3750,1.0961,0.1169,-0.5134,0.5446,-0.0003,0.2431,1.6021,94.9725,50.37562931,16.28175891,0.00000000,
13:21:26:529,0.0229,0.3750,1.0961,-0.5669,0.0240,-0.1539,-0.0003,0.2431,1.6021,94.9725,50.37562931,16.28175891,0.00000000,
13:21:26:564,0.0229,0.3750,1.0961,-0.5669,0.0240,-0.1539,-0.0003,0.2431,1.6021,105.0300,50.37562931,16.28175891,0.00000000,
13:21:26:573,0.0211,0.3266,0.9568,-0.5669,0.0240,-0.1539,-0.0003,0.2431,1.6021,105.0300,50.37562931,16.28175891,0.00000000,
13:21:26:581,0.0211,0.3266,0.9568,-0.5669,0.0240,-0.1539,0.4792,0.9013,1.2083,105.0300,50.37562931,16.28175891,0.00000000,
13:21:26:598,0.0211,0.3266,0.9568,0.5535,-0.8004,1.7114,0.4792,0.9013,1.2083,105.0300,50.37562931,16.28175891,0.00000000,
13:21:26:641,-0.0691,0.3146,0.6576,0.5535,-0.8004,1.7114,0.4792,0.9013,1.2083,105.0300,50.37562931,16.28175891,0.00000000,
13:21:26:649,-0.0691,0.3146,0.6576,0.5535,-0.8004,1.7114,0.4571,0.8774,1.0527,105.0300,50.37562931,16.28175891,0.00000000,
13:21:26:667,-0.0691,0.3146,0.6576,0.0290,-1.2125,-1.0386,0.4571,0.8774,1.0527,105.0300,50.37562931,16.28175891,0.00000000,
13:21:26:709,-0.1100,0.3145,0.7095,0.0290,-1.2125,-1.0386,0.4571,0.8774,1.0527,105.0300,50.37562931,16.28175891,0.00000000,
13:21:26:716,-0.1100,0.3145,0.7095,0.0290,-1.2125,-1.0386,0.0197,0.6907,1.0786,105.0300,50.37562931,16.28175891,0.00000000,
13:21:26:725,-0.1100,0.3145,0.7095,0.0290,-1.2125,-1.0386,0.0197,0.6907,1.0786,106.9875,50.37562931,16.28175891,0.00000000,
13:21:26:735,-0.1100,0.3145,0.7095,-0.5515,-1.0910,-2.4357,0.0197,0.6907,1.0786,106.9875,50.37562931,16.28175891,0.00000000,
13:21:26:777,-0.0650,0.3177,0.8449,-0.5515,-1.0910,-2.4357,0.0197,0.6907,1.0786,106.9875,50.37562931,16.28175891,0.00000000,
13:21:26:785,-0.0650,0.3177,0.8449,-0.5515,-1.0910,-2.4357,-0.1249,0.5498,1.1532,106.9875,50.37562931,16.28175891,0.00000000,
13:21:26:801,-0.0650,0.3177,0.8449,-0.5639,-0.9461,-1.0223,-0.1249,0.5498,1.1532,106.9875,50.37562931,16.28175891,0.00000000,
13:21:26:844,-0.0647,0.3764,0.9207,-0.5639,-0.9461,-1.0223,-0.1249,0.5498,1.1532,106.9875,50.37562931,16.28175891,0.00000000,
13:21:26:853,-0.0647,0.3764,0.9207,-0.5639,-0.9461,-1.0223,-0.7384,0.3076,0.9510,106.9875,50.37562931,16.28175891,0.00000000,
13:21:26:870,-0.0647,0.3764,0.9207,-0.1954,-0.1111,-0.4892,-0.7384,0.3076,0.9510,106.9875,50.37562931,16.28175891,0.00000000,
13:21:26:885,-0.0647,0.3764,0.9207,-0.1954,-0.1111,-0.4892,-0.7384,0.3076,0.9510,98.0100,50.37562931,16.28175891,0.00000000,
13:21:26:912,-0.0262,0.2286,1.5091,-0.1954,-0.1111,-0.4892,-0.7384,0.3076,0.9510,98.0100,50.37562931,16.28175891,0.00000000,
13:21:26:920,-0.0262,0.2286,1.5091,-0.1954,-0.1111,-0.4892,-0.9760,0.3487,1.1246,98.0100,50.37562931,16.28175891,0.00000000,
13:21:26:938,-0.0262,0.2286,1.5091,-0.1698,0.3139,1.6519,-0.9760,0.3487,1.1246,98.0100,50.37562931,16.28175891,0.00000000,
13:21:26:979,0.0368,0.2339,1.0876,-0.1698,0.3139,1.6519,-0.9760,0.3487,1.1246,98.0100,50.37562931,16.28175891,0.00000000,
13:21:26:988,0.0368,0.2339,1.0876,-0.1698,0.3139,1.6519,0.4957,1.0180,1.5427,98.0100,50.37562931,16.28175891,0.00000000,
13:21:27:005,0.0368,0.2339,1.0876,0.6075,-1.4916,5.2798,0.4957,1.0180,1.5427,98.0100,50.37562931,16.28175891,0.00000000,
13:21:27:045,0.0368,0.2339,1.0876,0.6075,-1.4916,5.2798,0.4957,1.0180,1.5427,94.0275,50.37562931,16.28175891,0.00000000,
13:21:27:049,0.1300,0.3413,0.8026,0.6075,-1.4916,5.2798,0.4957,1.0180,1.5427,94.0275,50.37562931,16.28175891,0.00000000,
13:21:27:056,0.1300,0.3413,0.8026,0.6075,-1.4916,5.2798,0.0118,0.2213,1.4870,94.0275,50.37562931,16.28175891,0.00000000,
13:21:27:074,0.1300,0.3413,0.8026,0.8673,-0.4191,-0.9653,0.0118,0.2213,1.4870,94.0275,50.37562931,16.28175891,0.00000000,
13:21:27:116,0.1171,0.3667,0.8491,0.8673,-0.4191,-0.9653,0.0118,0.2213,1.4870,94.0275,50.37562931,16.28175891,0.00000000,
13:21:27:124,0.1171,0.3667,0.8491,0.8673,-0.4191,-0.9653,-0.2414,0.4207,1.1139,94.0275,50.37562931,16.28175891,0.00000000,
13:21:27:141,0.1171,0.3667,0.8491,1.5093,0.3474,-1.3214,-0.2414,0.4207,1.1139,94.0275,50.37562931,16.28175891,0.00000000,
13:21:27:185,0.0319,0.3698,0.7840,1.5093,0.3474,-1.3214,-0.2414,0.4207,1.1139,94.0275,50.37562931,16.28175891,0.00000000,
13:21:27:192,0.0319,0.3698,0.7840,1.5093,0.3474,-1.3214,-0.0744,0.4551,0.9314,94.0275,50.37562931,16.28175891,0.00000000,
13:21:27:205,0.0319,0.3698,0.7840,1.5093,0.3474,-1.3214,-0.0744,0.4551,0.9314,99.0225,50.37562931,16.28175891,0.00000000,
13:21:27:211,0.0319,0.3698,0.7840,0.9486,0.4072,-1.0784,-0.0744,0.4551,0.9314,99.0225,50.37562931,16.28175891,0.00000000,
13:21:27:251,0.0324,0.3985,0.8087,0.9486,0.4072,-1.0784,-0.0744,0.4551,0.9314,99.0225,50.37562931,16.28175891,0.00000000,
13:21:27:260,0.0324,0.3985,0.8087,0.9486,0.4072,-1.0784,-0.0619,0.1268,0.9039,99.0225,50.37562931,16.28175891,0.00000000,
13:21:27:277,0.0324,0.3985,0.8087,0.0440,0.4910,-1.5998,-0.0619,0.1268,0.9039,99.0225,50.37562931,16.28175891,0.00000000,
13:21:27:319,0.0379,0.3981,0.9030,0.0440,0.4910,-1.5998,-0.0619,0.1268,0.9039,99.0225,50.37562931,16.28175891,0.00000000,
13:21:27:327,0.0379,0.3981,0.9030,0.0440,0.4910,-1.5998,-0.2514,0.2540,0.5450,99.0225,50.37562931,16.28175891,0.00000000,
13:21:27:345,0.0379,0.3981,0.9030,0.5269,0.9129,-0.8262,-0.2514,0.2540,0.5450,99.0225,50.37562931,16.28175891,0.00000000,
13:21:27:365,0.0379,0.3981,0.9030,0.5269,0.9129,-0.8262,-0.2514,0.2540,0.5450,108.0000,50.37562931,16.28175891,0.00000000,
13:21:27:387,-0.0878,0.3050,1.1393,0.5269,0.9129,-0.8262,-0.2514,0.2540,0.5450,108.0000,50.37562931,16.28175891,0.00000000,
13:21:27:395,-0.0878,0.3050,1.1393,0.5269,0.9129,-0.8262,-0.3763,0.7204,0.4468,108.0000,50.37562931,16.28175891,0.00000000,
13:21:27:411,-0.0878,0.3050,1.1393,0.3834,0.6264,0.4661,-0.3763,0.7204,0.4468,108.0000,50.37562931,16.28175891,0.00000000,
13:21:27:455,-0.1622,0.2748,1.1383,0.3834,0.6264,0.4661,-0.3763,0.7204,0.4468,108.0000,50.37562931,16.28175891,0.00000000,
13:21:27:464,-0.1622,0.2748,1.1383,0.3834,0.6264,0.4661,-0.1345,0.8920,0.8314,108.0000,50.37562931,16.28175891,0.00000000,
13:21:27:479,-0.1622,0.2748,1.1383,-0.6055,-0.1959,2.1102,-0.1345,0.8920,0.8314,108.0000,50.37562931,16.28175891,0.00000000,
13:21:27:522,-0.0919,0.2625,1.0922,-0.6055,-0.1959,2.1102,-0.1345,0.8920,0.8314,108.0000,50.37562931,16.28175891,0.00000000,
13:21:27:527,-0.0919,0.2625,1.0922,-0.6055,-0.1959,2.1102,-0.1345,0.8920,0.8314,126.9675,50.37562931,16.28175891,0.00000000,
13:21:27:531,-0.0919,0.2625,1.0922,-0.6055,-0.1959,2.1102,-0.1002,0.8731,1.0146,126.9675,50.37562931,16.28175891,0.00000000,
13:21:27:548,-0.0919,0.2625,1.0922,-0.0929,-0.1957,1.4253,-0.1002,0.8731,1.0146,126.9675,50.37562931,16.28175891,0.00000000,
13:21:27:591,-0.1897,0.2920,0.8155,-0.0929,-0.1957,1.4253,-0.1002,0.8731,1.0146,126.9675,50.37562931,16.28175891,0.00000000,
13:21:27:598,-0.1897,0.2920,0.8155,-0.0929,-0.1957,1.4253,-0.1103,0.7240,1.0701,126.9675,50.37562931,16.28175891,0.00000000,
13:21:27:616,-0.1897,0.2920,0.8155,0.0209,-0.3241,0.1231,-0.1103,0.7240,1.0701,126.9675,50.37562931,16.28175891,0.00000000,
13:21:27:658,-0.1361,0.2802,1.0575,0.0209,-0.3241,0.1231,-0.1103,0.7240,1.0701,126.9675,50.37562931,16.28175891,0.00000000,
13:21:27:666,-0.1361,0.2802,1.0575,0.0209,-0.3241,0.1231,-0.3522,-0.0680,0.7191,126.9675,50.37562931,16.28175891,0.00000000,
13:21:27:684,-0.1361,0.2802,1.0575,-0.5269,0.2197,-1.1583,-0.3522,-0.0680,0.7191,126.9675,50.37562931,16.28175891,0.00000000,
13:21:27:689,-0.1361,0.2802,1.0575,-0.5269,0.2197,-1.1583,-0.3522,-0.0680,0.7191,154.9800,50.37562931,16.28175891,0.00000000,
13:21:27:725,-0.1716,0.2174,1.0648,-0.5269,0.2197,-1.1583,-0.3522,-0.0680,0.7191,154.9800,50.37562931,16.28175891,0.00000000,
13:21:27:735,-0.1716,0.2174,1.0648,-0.5269,0.2197,-1.1583,0.1590,0.5742,0.1880,154.9800,50.37562931,16.28175891,0.00000000,
13:21:27:752,-0.1716,0.2174,1.0648,0.3830,-0.3473,1.6521,0.1590,0.5742,0.1880,154.9800,50.37562931,16.28175891,0.00000000,
13:21:27:794,-0.2393,0.2027,0.7754,0.3830,-0.3473,1.6521,0.1590,0.5742,0.1880,154.9800,50.37562931,16.28175891,0.00000000,
13:21:27:802,-0.2393,0.2027,0.7754,0.3830,-0.3473,1.6521,0.3172,0.4604,0.0634,154.9800,50.37562931,16.28175891,0.00000000,
13:21:27:819,-0.2393,0.2027,0.7754,-0.2480,-0.9404,-0.4071,0.3172,0.4604,0.0634,154.9800,50.37562931,16.28175891,0.00000000,
13:21:27:845,-0.2393,0.2027,0.7754,-0.2480,-0.9404,-0.4071,0.3172,0.4604,0.0634,175.0275,50.37562931,16.28175891,0.00000000,
13:21:27:862,-0.2408,0.2166,0.7938,-0.2480,-0.9404,-0.4071,0.3172,0.4604,0.0634,175.0275,50.37562931,16.28175891,0.00000000,
13:21:27:869,-0.2408,0.2166,0.7938,-0.2480,-0.9404,-0.4071,0.2532,0.2434,0.0704,175.0275,50.37562931,16.28175891,0.00000000,
13:21:27:891,-0.2408,0.2166,0.7938,-0.3874,-0.9976,-1.6563,0.2532,0.2434,0.0704,175.0275,50.37562931,16.28175891,0.00000000,
13:21:27:929,-0.2135,0.2389,0.8427,-0.3874,-0.9976,-1.6563,0.2532,0.2434,0.0704,175.0275,50.37562931,16.28175891,0.00000000,
13:21:27:938,-0.2135,0.2389,0.8427,-0.3874,-0.9976,-1.6563,0.1182,-0.0828,0.0072,175.0275,50.37562931,16.28175891,0.00000000,
13:21:27:956,-0.2135,0.2389,0.8427,-0.3231,-0.7071,-1.0736,0.1182,-0.0828,0.0072,175.0275,50.37562931,16.28175891,0.00000000,
13:21:27:996,-0.1602,0.2518,0.9903,-0.3231,-0.7071,-1.0736,0.1182,-0.0828,0.0072,175.0275,50.37562931,16.28175891,0.00000000,
13:21:28:004,-0.1602,0.2518,0.9903,-0.3231,-0.7071,-1.0736,-0.0921,-0.4154,-0.1962,175.0275,50.37562931,16.28175891,0.00000000,
13:21:28:006,-0.1602,0.2518,0.9903,-0.3231,-0.7071,-1.0736,-0.0921,-0.4154,-0.1962,181.9800,50.37562931,16.28175891,0.00000000,
13:21:28:022,-0.1602,0.2518,0.9903,-0.1822,-0.3752,-0.3373,-0.0921,-0.4154,-0.1962,181.9800,50.37562931,16.28175891,0.00000000,
13:21:28:065,-0.1892,0.2593,1.0323,-0.1822,-0.3752,-0.3373,-0.0921,-0.4154,-0.1962,181.9800,50.37562931,16.28175891,0.00000000,
13:21:28:074,-0.1892,0.2593,1.0323,-0.1822,-0.3752,-0.3373,-0.1819,-0.1640,-0.3963,181.9800,50.37562931,16.28175891,0.00000000,
13:21:28:091,-0.1892,0.2593,1.0323,0.1527,-0.1184,0.8378,-0.1819,-0.1640,-0.3963,181.9800,50.37562931,16.28175891,0.00000000,
13:21:28:132,-0.1570,0.2617,1.0418,0.1527,-0.1184,0.8378,-0.1819,-0.1640,-0.3963,181.9800,50.37562931,16.28175891,0.00000000,
13:21:28:141,-0.1570,0.2617,1.0418,0.1527,-0.1184,0.8378,-0.2657,-0.3650,-0.4271,181.9800,50.37562931,16.28175891,0.00000000,
13:21:28:158,-0.1570,0.2617,1.0418,-0.2747,0.1925,0.6168,-0.2657,-0.3650,-0.4271,181.9800,50.37562931,16.28175891,0.00000000,
13:21:28:165,-0.1570,0.2617,1.0418,-0.2747,0.1925,0.6168,-0.2657,-0.3650,-0.4271,175.9725,50.37562931,16.28175891,0.00000000,
13:21:28:200,-0.0891,0.2514,1.2075,-0.2747,0.1925,0.6168,-0.2657,-0.3650,-0.4271,175.9725,50.37562931,16.28175891,0.00000000,
13:21:28:208,-0.0891,0.2514,1.2075,-0.2747,0.1925,0.6168,-0.3319,-0.2011,-0.3506,175.9725,50.37562931,16.28175891,0.00000000,
13:21:28:226,-0.0891,0.2514,1.2075,0.2093,0.3160,1.1654,-0.3319,-0.2011,-0.3506,175.9725,50.37562931,16.28175891,0.00000000,
13:21:28:269,-0.0644,0.2144,1.1881,0.2093,0.3160,1.1654,-0.3319,-0.2011,-0.3506,175.9725,50.37562931,16.28175891,0.00000000,
13:21:28:277,-0.0644,0.2144,1.1881,0.2093,0.3160,1.1654,0.2085,-0.0577,-0.1191,175.9725,50.37562931,16.28175891,0.00000000,
13:21:28:294,-0.0644,0.2144,1.1881,0.6881,-0.1171,2.3309,0.2085,-0.0577,-0.1191,175.9725,50.37562931,16.28175891,0.00000000,
13:21:28:326,-0.0644,0.2144,1.1881,0.6881,-0.1171,2.3309,0.2085,-0.0577,-0.1191,169.0200,50.37562931,16.28175891,0.00000000,
13:21:28:336,0.0016,0.2611,0.8987,0.6881,-0.1171,2.3309,0.2085,-0.0577,-0.1191,169.0200,50.37562931,16.28175891,0.00000000,
13:21:28:344,0.0016,0.2611,0.8987,0.6881,-0.1171,2.3309,0.6376,-0.1368,0.0886,169.0200,50.37562931,16.28175891,0.00000000,
13:21:28:361,0.0016,0.2611,0.8987,0.7279,-0.6429,0.9211,0.6376,-0.1368,0.0886,169.0200,50.37562931,16.28175891,0.00000000,
13:21:28:407,-0.0088,0.3207,0.6799,0.7279,-0.6429,0.9211,0.6376,-0.1368,0.0886,169.0200,50.37562931,16.28175891,0.00000000,
13:21:28:412,-0.0088,0.3207,0.6799,0.7279,-0.6429,0.9211,0.2992,-0.2654,-0.1796,169.0200,50.37562931,16.28175891,0.00000000,
13:21:28:429,-0.0088,0.3207,0.6799,1.1026,-0.0103,-1.9453,0.2992,-0.2654,-0.1796,169.0200,50.37562931,16.28175891,0.00000000,
13:21:28:472,-0.0852,0.3134,0.8271,1.1026,-0.0103,-1.9453,0.2992,-0.2654,-0.1796,169.0200,50.37562931,16.28175891,0.00000000,
13:21:28:479,-0.0852,0.3134,0.8271,1.1026,-0.0103,-1.9453,-0.0003,-0.1686,-0.1732,169.0200,50.37562931,16.28175891,0.00000000,
13:21:28:487,-0.0852,0.3134,0.8271,1.1026,-0.0103,-1.9453,-0.0003,-0.1686,-0.1732,158.0175,50.37562931,16.28175891,0.00000000,
13:21:28:497,-0.0852,0.3134,0.8271,0.3524,0.1790,-2.3451,-0.0003,-0.1686,-0.1732,158.0175,50.37562931,16.28175891,0.00000000,
13:21:28:540,-0.0920,0.3481,0.8667,0.3524,0.1790,-2.3451,-0.0003,-0.1686,-0.1732,158.0175,50.37562931,16.28175891,0.00000000,
13:21:28:548,-0.0920,0.3481,0.8667,0.3524,0.1790,-2.3451,0.1797,0.0101,-0.0776,158.0175,50.37562931,16.28175891,0.00000000,
13:21:28:564,-0.0920,0.3481,0.8667,0.0417,0.1512,-0.6134,0.1797,0.0101,-0.0776,158.0175,50.37562931,16.28175891,0.00000000,
13:21:28:607,-0.1397,0.3736,0.8632,0.0417,0.1512,-0.6134,0.1797,0.0101,-0.0776,158.0175,50.37562931,16.28175891,0.00000000,
13:21:28:616,-0.1397,0.3736,0.8632,0.0417,0.1512,-0.6134,-0.0342,0.2375,0.1052,158.0175,50.37562931,16.28175891,0.00000000,
13:21:28:633,-0.1397,0.3736,0.8632,-0.1019,0.4572,-0.7876,-0.0342,0.2375,0.1052,158.0175,50.37562931,16.28175891,0.00000000,
13:21:28:645,-0.1397,0.3736,0.8632,-0.1019,0.4572,-0.7876,-0.0342,0.2375,0.1052,159.9750,50.37562931,16.28175891,0.00000000,
13:21:28:675,-0.1890,0.3722,0.9278,-0.1019,0.4572,-0.7876,-0.0342,0.2375,0.1052,159.9750,50.37562931,16.28175891,0.00000000,
13:21:28:684,-0.1890,0.3722,0.9278,-0.1019,0.4572,-0.7876,-0.0168,0.2095,0.4429,159.9750,50.37562931,16.28175891,0.00000000,
13:21:28:700,-0.1890,0.3722,0.9278,-0.5448,0.5332,-0.3315,-0.0168,0.2095,0.4429,159.9750,50.37562931,16.28175891,0.00000000,
13:21:28:744,-0.1365,0.3733,0.9705,-0.5448,0.5332,-0.3315,-0.0168,0.2095,0.4429,159.9750,50.37562931,16.28175891,0.00000000,
13:21:28:752,-0.1365,0.3733,0.9705,-0.5448,0.5332,-0.3315,-0.0260,-0.0505,0.7066,159.9750,50.37562931,16.28175891,0.00000000,
13:21:28:768,-0.1365,0.3733,0.9705,-0.8186,0.4130,0.2285,-0.0260,-0.0505,0.7066,159.9750,50.37562931,16.28175891,0.00000000,
13:21:28:806,-0.1365,0.3733,0.9705,-0.8186,0.4130,0.2285,-0.0260,-0.0505,0.7066,164.0250,50.37562931,16.28175891,0.00000000,
13:21:28:811,-0.0478,0.2940,1.0599,-0.8186,0.4130,0.2285,-0.0260,-0.0505,0.7066,164.0250,50.37562931,16.28175891,0.00000000,
13:21:28:821,-0.0478,0.2940,1.0599,-0.8186,0.4130,0.2285,-0.2474,-0.2815,0.6495,164.0250,50.37562931,16.28175891,0.00000000,
13:21:28:838,-0.0478,0.2940,1.0599,-0.2633,0.3970,0.5965,-0.2474,-0.2815,0.6495,164.0250,50.37562931,16.28175891,0.00000000,
13:21:28:878,-0.1597,0.2155,0.8726,-0.2633,0.3970,0.5965,-0.2474,-0.2815,0.6495,164.0250,50.37562931,16.28175891,0.00000000,
13:21:28:887,-0.1597,0.2155,0.8726,-0.2633,0.3970,0.5965,0.0289,0.7747,0.7495,164.0250,50.37562931,16.28175891,0.00000000,
13:21:28:905,-0.1597,0.2155,0.8726,0.4486,-0.7556,0.9266,0.0289,0.7747,0.7495,164.0250,50.37562931,16.28175891,0.00000000,
13:21:28:946,-0.2002,0.2113,0.9535,0.4486,-0.7556,0.9266,0.0289,0.7747,0.7495,164.0250,50.37562931,16.28175891,0.00000000,
13:21:28:962,-0.2002,0.2113,0.9535,0.4486,-0.7556,0.9266,-0.4117,-0.1616,0.9740,164.0250,50.37562931,16.28175891,0.00000000,
13:21:28:966,-0.2002,0.2113,0.9535,0.4486,-0.7556,0.9266,-0.4117,-0.1616,0.9740,165.9825,50.37562931,16.28175891,0.00000000,
13:21:28:971,-0.2002,0.2113,0.9535,-1.3798,-0.6025,-1.4312,-0.4117,-0.1616,0.9740,165.9825,50.37562931,16.28175891,0.00000000,
13:21:29:014,-0.0964,0.1566,1.2024,-1.3798,-0.6025,-1.4312,-0.4117,-0.1616,0.9740,165.9825,50.37562931,16.28175891,0.00000000,
13:21:29:022,-0.0964,0.1566,1.2024,-1.3798,-0.6025,-1.4312,0.0924,0.2421,0.8008,165.9825,50.37562931,16.28175891,0.00000000,
13:21:29:039,-0.0964,0.1566,1.2024,-0.4589,-1.0694,1.7526,0.0924,0.2421,0.8008,165.9825,50.37562931,16.28175891,0.00000000,
13:21:29:081,-0.1094,0.1836,0.8719,-0.4589,-1.0694,1.7526,0.0924,0.2421,0.8008,165.9825,50.37562931,16.28175891,0.00000000,
13:21:29:089,-0.1094,0.1836,0.8719,-0.4589,-1.0694,1.7526,0.0542,0.4502,0.4319,165.9825,50.37562931,16.28175891,0.00000000,
13:21:29:107,-0.1094,0.1836,0.8719,0.0575,-1.1507,1.0614,0.0542,0.4502,0.4319,165.9825,50.37562931,16.28175891,0.00000000,
13:21:29:124,-0.1094,0.1836,0.8719,0.0575,-1.1507,1.0614,0.0542,0.4502,0.4319,162.0000,50.37562931,16.28175891,0.00000000,
13:21:29:150,-0.0794,0.1752,0.9429,0.0575,-1.1507,1.0614,0.0542,0.4502,0.4319,162.0000,50.37562931,16.28175891,0.00000000,
13:21:29:158,-0.0794,0.1752,0.9429,0.0575,-1.1507,1.0614,-0.1173,-0.0018,-0.0008,162.0000,50.37562931,16.28175891,0.00000000,
13:21:29:175,-0.0794,0.1752,0.9429,0.0962,-0.7502,-0.9425,-0.1173,-0.0018,-0.0008,162.0000,50.37562931,16.28175891,0.00000000,
13:21:29:218,0.0160,0.1966,1.0052,0.0962,-0.7502,-0.9425,-0.1173,-0.0018,-0.0008,162.0000,50.37562931,16.28175891,0.00000000,
13:21:29:226,0.0160,0.1966,1.0052,0.0962,-0.7502,-0.9425,0.0049,-0.4662,-0.6347,162.0000,50.37562931,16.28175891,0.00000000,
13:21:29:244,0.0160,0.1966,1.0052,0.3606,-0.6630,0.0604,0.0049,-0.4662,-0.6347,162.0000,50.37562931,16.28175891,0.00000000,
13:21:29:286,0.0160,0.1966,1.0052,0.3606,-0.6630,0.0604,0.0049,-0.4662,-0.6347,153.0225,50.37562931,16.28175891,0.00000000,
13:21:29:290,-0.1328,0.1499,1.0093,0.3606,-0.6630,0.0604,0.0049,-0.4662,-0.6347,153.0225,50.37562931,16.28175891,0.00000000,
13:21:29:294,-0.1328,0.1499,1.0093,0.3606,-0.6630,0.0604,0.1124,-0.0389,-0.4833,153.0225,50.37562931,16.28175891,0.00000000,
13:21:29:311,-0.1328,0.1499,1.0093,0.7333,-0.6415,0.8126,0.1124,-0.0389,-0.4833,153.0225,50.37562931,16.28175891,0.00000000,
13:21:29:353,-0.1209,0.1999,0.9450,0.7333,-0.6415,0.8126,0.1124,-0.0389,-0.4833,153.0225,50.37562931,16.28175891,0.00000000,
13:21:29:361,-0.1209,0.1999,0.9450,0.7333,-0.6415,0.8126,-0.4980,-0.5745,0.7152,153.0225,50.37562931,16.28175891,0.00000000,
13:21:29:379,-0.1209,0.1999,0.9450,-1.5646,-0.4018,-0.3259,-0.4980,-0.5745,0.7152,153.0225,50.37562931,16.28175891,0.00000000,
13:21:29:421,0.2058,0.2629,1.1361,-1.5646,-0.4018,-0.3259,-0.4980,-0.5745,0.7152,153.0225,50.37562931,16.28175891,0.00000000,
13:21:29:429,0.2058,0.2629,1.1361,-1.5646,-0.4018,-0.3259,0.4775,-1.1846,0.4942,153.0225,50.37562931,16.28175891,0.00000000,
13:21:29:445,0.2058,0.2629,1.1361,-1.5646,-0.4018,-0.3259,0.4775,-1.1846,0.4942,138.9825,50.37562931,16.28175891,0.00000000,
13:21:29:448,0.2058,0.2629,1.1361,-0.3874,-0.3146,0.5506,0.4775,-1.1846,0.4942,138.9825,50.37562931,16.28175891,0.00000000,
13:21:29:488,0.0344,0.2795,0.7979,-0.3874,-0.3146,0.5506,0.4775,-1.1846,0.4942,138.9825,50.37562931,16.28175891,0.00000000,
13:21:29:497,0.0344,0.2795,0.7979,-0.3874,-0.3146,0.5506,0.6965,-0.7593,0.2537,138.9825,50.37562931,16.28175891,0.00000000,
13:21:29:514,0.0344,0.2795,0.7979,1.0561,-0.0076,0.6512,0.6965,-0.7593,0.2537,138.9825,50.37562931,16.28175891,0.00000000,
13:21:29:556,0.1666,0.3500,0.8210,1.0561,-0.0076,0.6512,0.6965,-0.7593,0.2537,138.9825,50.37562931,16.28175891,0.00000000,
13:21:29:564,0.1666,0.3500,0.8210,1.0561,-0.0076,0.6512,-0.4009,-0.8961,0.6677,138.9825,50.37562931,16.28175891,0.00000000,
13:21:29:581,0.1666,0.3500,0.8210,-1.4657,0.3857,-1.7840,-0.4009,-0.8961,0.6677,138.9825,50.37562931,16.28175891,0.00000000,
13:21:29:605,0.1666,0.3500,0.8210,-1.4657,0.3857,-1.7840,-0.4009,-0.8961,0.6677,115.0200,50.37562931,16.28175891,0.00000000,
13:21:29:625,0.1666,0.3219,0.8988,-1.4657,0.3857,-1.7840,-0.4009,-0.8961,0.6677,115.0200,50.37562931,16.28175891,0.00000000,
13:21:29:633,0.1666,0.3219,0.8988,-1.4657,0.3857,-1.7840,-0.5508,0.1964,0.2103,115.0200,50.37562931,16.28175891,0.00000000,
13:21:29:649,0.1666,0.3219,0.8988,0.7494,1.2512,-0.7093,-0.5508,0.1964,0.2103,115.0200,50.37562931,16.28175891,0.00000000,
13:21:29:692,0.0885,0.2932,0.9139,0.7494,1.2512,-0.7093,-0.5508,0.1964,0.2103,115.0200,50.37562931,16.28175891,0.00000000,
13:21:29:700,0.0885,0.2932,0.9139,0.7494,1.2512,-0.7093,0.0492,-0.1860,0.5313,115.0200,50.37562931,16.28175891,0.00000000,
13:21:29:718,0.0885,0.2932,0.9139,-0.4849,0.7533,-0.5192,0.0492,-0.1860,0.5313,115.0200,50.37562931,16.28175891,0.00000000,
13:21:29:759,0.1668,0.2766,0.9076,-0.4849,0.7533,-0.5192,0.0492,-0.1860,0.5313,115.0200,50.37562931,16.28175891,0.00000000,
13:21:29:765,0.1668,0.2766,0.9076,-0.4849,0.7533,-0.5192,0.0492,-0.1860,0.5313,110.9700,50.37562931,16.28175891,0.00000000,
13:21:29:769,0.1668,0.2766,0.9076,-0.4849,0.7533,-0.5192,0.9441,0.8665,1.0316,110.9700,50.37562931,16.28175891,0.00000000,
13:21:29:785,0.1668,0.2766,0.9076,0.0977,-0.4502,0.1747,0.9441,0.8665,1.0316,110.9700,50.37562931,16.28175891,0.00000000,
13:21:29:827,0.0363,0.3100,0.7214,0.0977,-0.4502,0.1747,0.9441,0.8665,1.0316,110.9700,50.37562931,16.28175891,0.00000000,
13:21:29:836,0.0363,0.3100,0.7214,0.0977,-0.4502,0.1747,0.9752,0.8390,1.3538,110.9700,50.37562931,16.28175891,0.00000000,
13:21:29:853,0.0363,0.3100,0.7214,0.4365,-0.2424,-0.6558,0.9752,0.8390,1.3538,110.9700,50.37562931,16.28175891,0.00000000,
13:21:29:896,0.0065,0.2761,0.7489,0.4365,-0.2424,-0.6558,0.9752,0.8390,1.3538,110.9700,50.37562931,16.28175891,0.00000000,
13:21:29:904,0.0065,0.2761,0.7489,0.4365,-0.2424,-0.6558,0.4071,0.7129,2.1806,110.9700,50.37562931,16.28175891,0.00000000,
13:21:29:920,0.0065,0.2761,0.7489,-1.2083,-0.5506,-1.9001,0.4071,0.7129,2.1806,110.9700,50.37562931,16.28175891,0.00000000,
13:21:29:925,0.0065,0.2761,0.7489,-1.2083,-0.5506,-1.9001,0.4071,0.7129,2.1806,116.0325,50.37562931,16.28175891,0.00000000,
13:21:29:964,0.0132,0.2233,0.8642,-1.2083,-0.5506,-1.9001,0.4071,0.7129,2.1806,116.0325,50.37562931,16.28175891,0.00000000,
13:21:29:970,0.0132,0.2233,0.8642,-1.2083,-0.5506,-1.9001,0.8847,0.7741,2.8294,116.0325,50.37562931,16.28175891,0.00000000,
13:21:29:988,0.0132,0.2233,0.8642,-0.9355,-0.8895,-0.1908,0.8847,0.7741,2.8294,116.0325,50.37562931,16.28175891,0.00000000,
13:21:30:031,0.1781,0.2069,0.8327,-0.9355,-0.8895,-0.1908,0.8847,0.7741,2.8294,116.0325,50.37562931,16.28175891,0.00000000,
13:21:30:039,0.1781,0.2069,0.8327,-0.9355,-0.8895,-0.1908,0.6096,0.2729,3.3827,116.0325,50.37562931,16.28175891,0.00000000,
13:21:30:056,0.1781,0.2069,0.8327,-1.0779,-1.1447,-0.1669,0.6096,0.2729,3.3827,116.0325,50.37562931,16.28175891,0.00000000,
13:21:30:085,0.1781,0.2069,0.8327,-1.0779,-1.1447,-0.1669,0.6096,0.2729,3.3827,104.0175,50.37562931,16.28175891,0.00000000,
13:21:30:099,0.3564,0.2063,0.8593,-1.0779,-1.1447,-0.1669,0.6096,0.2729,3.3827,104.0175,50.37562931,16.28175891,0.00000000,
13:21:30:107,0.3564,0.2063,0.8593,-1.0779,-1.1447,-0.1669,-0.6156,1.1510,2.7909,104.0175,50.37562931,16.28175891,0.00000000,
13:21:30:124,0.3564,0.2063,0.8593,0.9901,-0.6389,-0.5619,-0.6156,1.1510,2.7909,104.0175,50.37562931,16.28175891,0.00000000,
13:21:30:167,0.2295,0.1450,1.0688,0.9901,-0.6389,-0.5619,-0.6156,1.1510,2.7909,104.0175,50.37562931,16.28175891,0.00000000,
13:21:30:175,0.2295,0.1450,1.0688,0.9901,-0.6389,-0.5619,0.1223,0.5205,2.0065,104.0175,50.37562931,16.28175891,0.00000000,
13:21:30:192,0.2295,0.1450,1.0688,1.4606,-0.3327,1.0719,0.1223,0.5205,2.0065,104.0175,50.37562931,16.28175891,0.00000000,
13:21:30:235,0.1417,0.1309,0.7357,1.4606,-0.3327,1.0719,0.1223,0.5205,2.0065,104.0175,50.37562931,16.28175891,0.00000000,
13:21:30:243,0.1417,0.1309,0.7357,1.4606,-0.3327,1.0719,-0.3305,0.3911,2.1034,104.0175,50.37562931,16.28175891,0.00000000,
13:21:30:247,0.1417,0.1309,0.7357,1.4606,-0.3327,1.0719,-0.3305,0.3911,2.1034,98.0100,50.37562931,16.28175891,0.00000000,
13:21:30:260,0.1417,0.1309,0.7357,-0.5399,-0.5529,0.3436,-0.3305,0.3911,2.1034,98.0100,50.37562931,16.28175891,0.00000000,
13:21:30:302,0.2182,0.0877,0.8318,-0.5399,-0.5529,0.3436,-0.3305,0.3911,2.1034,98.0100,50.37562931,16.28175891,0.00000000,
13:21:30:311,0.2182,0.0877,0.8318,-0.5399,-0.5529,0.3436,-0.9792,0.9737,1.1837,98.0100,50.37562931,16.28175891,0.00000000,
13:21:30:327,0.2182,0.0877,0.8318,0.8602,0.4073,-1.1647,-0.9792,0.9737,1.1837,98.0100,50.37562931,16.28175891,0.00000000,
13:21:30:370,0.2252,0.0337,0.8516,0.8602,0.4073,-1.1647,-0.9792,0.9737,1.1837,98.0100,50.37562931,16.28175891,0.00000000,
13:21:30:379,0.2252,0.0337,0.8516,0.8602,0.4073,-1.1647,-1.4358,0.8454,0.1403,98.0100,50.37562931,16.28175891,0.00000000,
13:21:30:395,0.2252,0.0337,0.8516,0.7522,0.4484,-1.1230,-1.4358,0.8454,0.1403,98.0100,50.37562931,16.28175891,0.00000000,
13:21:30:405,0.2252,0.0337,0.8516,0.7522,0.4484,-1.1230,-1.4358,0.8454,0.1403,99.9675,50.37562931,16.28175891,0.00000000,
13:21:30:437,0.2971,-0.0374,0.9901,0.7522,0.4484,-1.1230,-1.4358,0.8454,0.1403,99.9675,50.37562931,16.28175891,0.00000000,
13:21:30:446,0.2971,-0.0374,0.9901,0.7522,0.4484,-1.1230,-1.0551,0.2201,0.1019,99.9675,50.37562931,16.28175891,0.00000000,
13:21:30:464,0.2971,-0.0374,0.9901,1.0106,0.0749,0.2194,-1.0551,0.2201,0.1019,99.9675,50.37562931,16.28175891,0.00000000,
13:21:30:505,0.2445,-0.0227,1.0262,1.0106,0.0749,0.2194,-1.0551,0.2201,0.1019,99.9675,50.37562931,16.28175891,0.00000000,
13:21:30:514,0.2445,-0.0227,1.0262,1.0106,0.0749,0.2194,-0.8196,0.7544,-0.7672,99.9675,50.37562931,16.28175891,0.00000000,
13:21:30:531,0.2445,-0.0227,1.0262,2.6641,0.6310,0.6111,-0.8196,0.7544,-0.7672,99.9675,50.37562931,16.28175891,0.00000000,
13:21:30:565,0.2445,-0.0227,1.0262,2.6641,0.6310,0.6111,-0.8196,0.7544,-0.7672,95.9850,50.37562931,16.28175891,0.00000000,
13:21:30:574,0.0378,-0.1234,0.9819,2.6641,0.6310,0.6111,-0.8196,0.7544,-0.7672,95.9850,50.37562931,16.28175891,0.00000000,
13:21:30:581,0.0378,-0.1234,0.9819,2.6641,0.6310,0.6111,-0.6009,0.6014,-0.1839,95.9850,50.37562931,16.28175891,0.00000000,
13:21:30:598,0.0378,-0.1234,0.9819,0.6471,0.7028,1.0308,-0.6009,0.6014,-0.1839,95.9850,50.37562931,16.28175891,0.00000000,
13:21:30:640,0.0664,-0.1273,1.4644,0.6471,0.7028,1.0308,-0.6009,0.6014,-0.1839,95.9850,50.37562931,16.28175891,0.00000000,
13:21:30:650,0.0664,-0.1273,1.4644,0.6471,0.7028,1.0308,-0.0829,-0.2337,0.1713,95.9850,50.37562931,16.28175891,0.00000000,
13:21:30:668,0.0664,-0.1273,1.4644,-0.3473,-0.5026,1.1916,-0.0829,-0.2337,0.1713,95.9850,50.37562931,16.28175891,0.00000000,
13:21:30:709,-0.0373,-0.1652,1.2513,-0.3473,-0.5026,1.1916,-0.0829,-0.2337,0.1713,95.9850,50.37562931,16.28175891,0.00000000,
13:21:30:717,-0.0373,-0.1652,1.2513,-0.3473,-0.5026,1.1916,0.1750,-0.2941,0.3677,95.9850,50.37562931,16.28175891,0.00000000,
13:21:30:725,-0.0373,-0.1652,1.2513,-0.3473,-0.5026,1.1916,0.1750,-0.2941,0.3677,96.9975,50.37562931,16.28175891,0.00000000,
13:21:30:734,-0.0373,-0.1652,1.2513,-0.4613,-0.5829,4.2021,0.1750,-0.2941,0.3677,96.9975,50.37562931,16.28175891,0.00000000,
13:21:30:777,-0.0455,-0.1467,1.3158,-0.4613,-0.5829,4.2021,0.1750,-0.2941,0.3677,96.9975,50.37562931,16.28175891,0.00000000,
13:21:30:785,-0.0455,-0.1467,1.3158,-0.4613,-0.5829,4.2021,0.2066,-0.1964,0.8462,96.9975,50.37562931,16.28175891,0.00000000,
13:21:30:801,-0.0455,-0.1467,1.3158,-1.5451,-0.2993,2.7671,0.2066,-0.1964,0.8462,96.9975,50.37562931,16.28175891,0.00000000,
13:21:30:844,-0.0466,-0.1799,1.2256,-1.5451,-0.2993,2.7671,0.2066,-0.1964,0.8462,96.9975,50.37562931,16.28175891,0.00000000,
13:21:30:854,-0.0466,-0.1799,1.2256,-1.5451,-0.2993,2.7671,0.1307,0.3583,0.4065,96.9975,50.37562931,16.28175891,0.00000000,
13:21:30:870,-0.0466,-0.1799,1.2256,-0.4363,-0.8084,1.9840,0.1307,0.3583,0.4065,96.9975,50.37562931,16.28175891,0.00000000,
13:21:30:885,-0.0466,-0.1799,1.2256,-0.4363,-0.8084,1.9840,0.1307,0.3583,0.4065,99.0225,50.37562931,16.28175891,0.00000000,
13:21:30:913,-0.0190,-0.1887,1.0854,-0.4363,-0.8084,1.9840,0.1307,0.3583,0.4065,99.0225,50.37562931,16.28175891,0.00000000,
13:21:30:921,-0.0190,-0.1887,1.0854,-0.4363,-0.8084,1.9840,0.4470,0.0522,0.4174,99.0225,50.37562931,16.28175891,0.00000000,
13:21:30:938,-0.0190,-0.1887,1.0854,-1.2157,-1.1584,1.1653,0.4470,0.0522,0.4174,99.0225,50.37562931,16.28175891,0.00000000,
13:21:30:979,0.2072,-0.2129,1.0607,-1.2157,-1.1584,1.1653,0.4470,0.0522,0.4174,99.0225,50.37562931,16.28175891,0.00000000,
13:21:30:988,0.2072,-0.2129,1.0607,-1.2157,-1.1584,1.1653,0.7118,0.2662,0.2318,99.0225,50.37562931,16.28175891,0.00000000,
13:21:31:005,0.2072,-0.2129,1.0607,0.2077,-1.1870,-0.2580,0.7118,0.2662,0.2318,99.0225,50.37562931,16.28175891,0.00000000,
13:21:31:046,0.2072,-0.2129,1.0607,0.2077,-1.1870,-0.2580,0.7118,0.2662,0.2318,100.9800,50.37562931,16.28175891,0.00000000,
13:21:31:050,0.1601,0.0009,1.1186,0.2077,-1.1870,-0.2580,0.7118,0.2662,0.2318,100.9800,50.37562931,16.28175891,0.00000000,
13:21:31:057,0.1601,0.0009,1.1186,0.2077,-1.1870,-0.2580,0.2265,-0.0099,-0.2929,100.9800,50.37562931,16.28175891,0.00000000,
13:21:31:073,0.1601,0.0009,1.1186,1.2747,-0.9866,0.2927,0.2265,-0.0099,-0.2929,100.9800,50.37562931,16.28175891,0.00000000,
13:21:31:116,0.0038,-0.0167,1.0781,1.2747,-0.9866,0.2927,0.2265,-0.0099,-0.2929,100.9800,50.37562931,16.28175891,0.00000000,
13:21:31:124,0.0038,-0.0167,1.0781,1.2747,-0.9866,0.2927,1.0791,0.5160,-0.6439,100.9800,50.37562931,16.28175891,0.00000000,
13:21:31:141,0.0038,-0.0167,1.0781,1.4833,-0.9496,0.0016,1.0791,0.5160,-0.6439,100.9800,50.37562931,16.28175891,0.00000000,
13:21:31:185,0.1066,0.0382,0.7680,1.4833,-0.9496,0.0016,1.0791,0.5160,-0.6439,100.9800,50.37562931,16.28175891,0.00000000,
13:21:31:192,0.1066,0.0382,0.7680,1.4833,-0.9496,0.0016,0.2590,0.0501,-1.1296,100.9800,50.37562931,16.28175891,0.00000000,
13:21:31:205,0.1066,0.0382,0.7680,1.4833,-0.9496,0.0016,0.2590,0.0501,-1.1296,130.0050,50.37562931,16.28175891,0.00000000,
13:21:31:209,0.1066,0.0382,0.7680,0.6174,-0.1310,-0.4001,0.2590,0.0501,-1.1296,130.0050,50.37562931,16.28175891,0.00000000,
13:21:31:252,-0.1389,0.0538,0.9766,0.6174,-0.1310,-0.4001,0.2590,0.0501,-1.1296,130.0050,50.37562931,16.28175891,0.00000000,
13:21:31:260,-0.1389,0.0538,0.9766,0.6174,-0.1310,-0.4001,-1.0490,-0.4213,-1.0786,130.0050,50.37562931,16.28175891,0.00000000,
13:21:31:277,-0.1389,0.0538,0.9766,-0.0307,0.8016,-3.3736,-1.0490,-0.4213,-1.0786,130.0050,50.37562931,16.28175891,0.00000000,
13:21:31:319,-0.0206,0.0085,1.1389,-0.0307,0.8016,-3.3736,-1.0490,-0.4213,-1.0786,130.0050,50.37562931,16.28175891,0.00000000,
13:21:31:327,-0.0206,0.0085,1.1389,-0.0307,0.8016,-3.3736,0.0548,-0.1663,-0.9345,130.0050,50.37562931,16.28175891,0.00000000,
13:21:31:344,-0.0206,0.0085,1.1389,-2.1309,0.5814,1.5826,0.0548,-0.1663,-0.9345,130.0050,50.37562931,16.28175891,0.00000000,
13:21:31:366,-0.0206,0.0085,1.1389,-2.1309,0.5814,1.5826,0.0548,-0.1663,-0.9345,143.0325,50.37562931,16.28175891,0.00000000,
13:21:31:387,0.0287,0.1110,1.0088,-2.1309,0.5814,1.5826,0.0548,-0.1663,-0.9345,143.0325,50.37562931,16.28175891,0.00000000,
13:21:31:395,0.0287,0.1110,1.0088,-2.1309,0.5814,1.5826,0.0342,0.0498,-0.3636,143.0325,50.37562931,16.28175891,0.00000000,
13:21:31:412,0.0287,0.1110,1.0088,0.5481,0.4050,-0.5094,0.0342,0.0498,-0.3636,143.0325,50.37562931,16.28175891,0.00000000,
13:21:31:455,0.0310,0.0115,1.0005,0.5481,0.4050,-0.5094,0.0342,0.0498,-0.3636,143.0325,50.37562931,16.28175891,0.00000000,
13:21:31:464,0.0310,0.0115,1.0005,0.5481,0.4050,-0.5094,0.0029,0.0102,0.0008,143.0325,50.37562931,16.28175891,0.00000000,
13:21:31:480,0.0310,0.0115,1.0005,-0.2579,0.5668,-0.4792,0.0029,0.0102,0.0008,143.0325,50.37562931,16.28175891,0.00000000,
13:21:31:522,0.0323,0.0093,1.0022,-0.2579,0.5668,-0.4792,0.0029,0.0102,0.0008,143.0325,50.37562931,16.28175891,0.00000000,
13:21:31:525,0.0323,0.0093,1.0022,-0.2579,0.5668,-0.4792,0.0029,0.0102,0.0008,132.0300,50.37562931,16.28175891,0.00000000,
13:21:31:531,0.0323,0.0093,1.0022,-0.2579,0.5668,-0.4792,-0.0064,-0.0029,0.0005,132.0300,50.37562931,16.28175891,0.00000000,
13:21:31:548,0.0323,0.0093,1.0022,0.0317,0.0352,-0.3143,-0.0064,-0.0029,0.0005,132.0300,50.37562931,16.28175891,0.00000000,
13:21:31:591,0.0314,0.0084,1.0051,0.0317,0.0352,-0.3143,-0.0064,-0.0029,0.0005,132.0300,50.37562931,16.28175891,0.00000000,
13:21:31:599,0.0314,0.0084,1.0051,0.0317,0.0352,-0.3143,-0.0008,0.0009,-0.0002,132.0300,50.37562931,16.28175891,0.00000000,
13:21:31:617,0.0314,0.0084,1.0051,0.0393,0.0206,-0.2717,-0.0008,0.0009,-0.0002,132.0300,50.37562931,16.28175891,0.00000000,
13:21:31:658,0.0320,0.0086,1.0041,0.0393,0.0206,-0.2717,-0.0008,0.0009,-0.0002,132.0300,50.37562931,16.28175891,0.00000000,
13:21:31:667,0.0320,0.0086,1.0041,0.0393,0.0206,-0.2717,-0.0006,0.0005,0.0000,132.0300,50.37562931,16.28175891,0.00000000,
13:21:31:684,0.0320,0.0086,1.0041,0.0308,0.0327,-0.2628,-0.0006,0.0005,0.0000,132.0300,50.37562931,16.28175891,0.00000000,
13:21:31:687,0.0320,0.0086,1.0041,0.0308,0.0327,-0.2628,-0.0006,0.0005,0.0000,144.9900,50.37562931,16.28175891,0.00000000,
13:21:31:725,0.0322,0.0099,1.0042,0.0308,0.0327,-0.2628,-0.0006,0.0005,0.0000,144.9900,50.37562931,16.28175891,0.00000000,
13:21:31:735,0.0322,0.0099,1.0042,0.0308,0.0327,-0.2628,-0.0011,0.0005,-0.0002,144.9900,50.37562931,16.28175891,0.00000000,
13:21:31:751,0.0322,0.0099,1.0042,0.0253,0.0259,-0.2267,-0.0011,0.0005,-0.0002,144.9900,50.37562931,16.28175891,0.00000000,
13:21:31:794,0.0319,0.0093,1.0045,0.0253,0.0259,-0.2267,-0.0011,0.0005,-0.0002,144.9900,50.37562931,16.28175891,0.00000000,
13:21:31:801,0.0319,0.0093,1.0045,0.0253,0.0259,-0.2267,-0.0003,0.0005,-0.0003,144.9900,50.37562931,16.28175891,0.00000000,
13:21:31:819,0.0319,0.0093,1.0045,0.0273,0.0304,-0.2023,-0.0003,0.0005,-0.0003,144.9900,50.37562931,16.28175891,0.00000000,
13:21:31:845,0.0319,0.0093,1.0045,0.0273,0.0304,-0.2023,-0.0003,0.0005,-0.0003,154.9800,50.37562931,16.28175891,0.00000000,
13:21:31:862,0.0320,0.0098,1.0050,0.0273,0.0304,-0.2023,-0.0003,0.0005,-0.0003,154.9800,50.37562931,16.28175891,0.00000000,
13:21:31:870,0.0320,0.0098,1.0050,0.0273,0.0304,-0.2023,0.0011,0.0003,-0.0003,154.9800,50.37562931,16.28175891,0.00000000,
13:21:31:886,0.0320,0.0098,1.0050,0.0246,0.0140,-0.1763,0.0011,0.0003,-0.0003,154.9800,50.37562931,16.28175891,0.00000000,
13:21:31:930,0.0325,0.0095,1.0043,0.0246,0.0140,-0.1763,0.0011,0.0003,-0.0003,154.9800,50.37562931,16.28175891,0.00000000,
13:21:31:938,0.0325,0.0095,1.0043,0.0246,0.0140,-0.1763,-0.0012,-0.0003,-0.0002,154.9800,50.37562931,16.28175891,0.00000000,
13:21:31:956,0.0325,0.0095,1.0043,0.0193,0.0383,-0.1584,-0.0012,-0.0003,-0.0002,154.9800,50.37562931,16.28175891,0.00000000,
13:21:31:997,0.0322,0.0103,1.0048,0.0193,0.0383,-0.1584,-0.0012,-0.0003,-0.0002,154.9800,50.37562931,16.28175891,0.00000000,
13:21:32:004,0.0322,0.0103,1.0048,0.0193,0.0383,-0.1584,-0.0012,-0.0003,-0.0002,157.0050,50.37562931,16.28175891,0.00000000,
13:21:32:005,0.0322,0.0103,1.0048,0.0193,0.0383,-0.1584,-0.0011,0.0000,0.0005,157.0050,50.37562931,16.28175891,0.00000000,
13:21:32:024,0.0322,0.0103,1.0048,0.0198,0.0145,-0.1360,-0.0011,0.0000,0.0005,157.0050,50.37562931,16.28175891,0.00000000,
13:21:32:065,0.0320,0.0063,1.0048,0.0198,0.0145,-0.1360,-0.0011,0.0000,0.0005,157.0050,50.37562931,16.28175891,0.00000000,
13:21:32:073,0.0320,0.0063,1.0048,0.0198,0.0145,-0.1360,0.0050,0.0012,-0.0011,157.0050,50.37562931,16.28175891,0.00000000,
13:21:32:091,0.0320,0.0063,1.0048,0.0175,0.0014,-0.1312,0.0050,0.0012,-0.0011,157.0050,50.37562931,16.28175891,0.00000000,
13:21:32:133,0.0321,0.0091,1.0044,0.0175,0.0014,-0.1312,0.0050,0.0012,-0.0011,157.0050,50.37562931,16.28175891,0.00000000,
13:21:32:141,0.0321,0.0091,1.0044,0.0175,0.0014,-0.1312,-0.0012,-0.0002,0.0003,157.0050,50.37562931,16.28175891,0.00000000,
13:21:32:158,0.0321,0.0091,1.0044,0.0101,0.0666,-0.1140,-0.0012,-0.0002,0.0003,157.0050,50.37562931,16.28175891,0.00000000,
13:21:32:168,0.0321,0.0091,1.0044,0.0101,0.0666,-0.1140,-0.0012,-0.0002,0.0003,152.0100,50.37562931,16.28175891,0.00000000,
13:21:32:200,0.0316,0.0119,1.0047,0.0101,0.0666,-0.1140,-0.0012,-0.0002,0.0003,152.0100,50.37562931,16.28175891,0.00000000,
13:21:32:208,0.0316,0.0119,1.0047,0.0101,0.0666,-0.1140,-0.0000,-0.0002,-0.0002,152.0100,50.37562931,16.28175891,0.00000000,
13:21:32:226,0.0316,0.0119,1.0047,0.0208,-0.0185,-0.0989,-0.0000,-0.0002,-0.0002,152.0100,50.37562931,16.28175891,0.00000000,
13:21:32:269,0.0322,0.0103,1.0048,0.0208,-0.0185,-0.0989,-0.0000,-0.0002,-0.0002,152.0100,50.37562931,16.28175891,0.00000000,
13:21:32:276,0.0322,0.0103,1.0048,0.0208,-0.0185,-0.0989,-0.0012,-0.0002,-0.0000,152.0100,50.37562931,16.28175891,0.00000000,
13:21:32:294,0.0322,0.0103,1.0048,0.0055,0.0126,-0.0802,-0.0012,-0.0002,-0.0000,152.0100,50.37562931,16.28175891,0.00000000,
13:21:32:325,0.0322,0.0103,1.0048,0.0055,0.0126,-0.0802,-0.0012,-0.0002,-0.0000,143.9775,50.37562931,16.28175891,0.00000000,
13:21:32:337,0.0320,0.0104,1.0043,0.0055,0.0126,-0.0802,-0.0012,-0.0002,-0.0000,143.9775,50.37562931,16.28175891,0.00000000,
13:21:32:345,0.0320,0.0104,1.0043,0.0055,0.0126,-0.0802,-0.0005,0.0002,0.0003,143.9775,50.37562931,16.28175891,0.00000000,
13:21:32:361,0.0320,0.0104,1.0043,0.0057,0.0011,-0.0750,-0.0005,0.0002,0.0003,143.9775,50.37562931,16.28175891,0.00000000,
13:21:32:404,0.0319,0.0079,1.0049,0.0057,0.0011,-0.0750,-0.0005,0.0002,0.0003,143.9775,50.37562931,16.28175891,0.00000000,
13:21:32:413,0.0319,0.0079,1.0049,0.0057,0.0011,-0.0750,0.0000,0.0005,-0.0003,143.9775,50.37562931,16.28175891,0.00000000,
13:21:32:430,0.0319,0.0079,1.0049,0.0152,0.0200,-0.0720,0.0000,0.0005,-0.0003,143.9775,50.37562931,16.28175891,0.00000000,
13:21:32:472,0.0330,0.0098,1.0043,0.0152,0.0200,-0.0720,0.0000,0.0005,-0.0003,143.9775,50.37562931,16.28175891,0.00000000,
13:21:32:480,0.0330,0.0098,1.0043,0.0152,0.0200,-0.0720,-0.0011,0.0003,0.0002,143.9775,50.37562931,16.28175891,0.00000000,
13:21:32:485,0.0330,0.0098,1.0043,0.0152,0.0200,-0.0720,-0.0011,0.0003,0.0002,135.0000,50.37562931,16.28175891,0.00000000,
13:21:32:498,0.0330,0.0098,1.0043,0.0108,0.0088,-0.0630,-0.0011,0.0003,0.0002,135.0000,50.37562931,16.28175891,0.00000000,
13:21:32:540,0.0324,0.0096,1.0046,0.0108,0.0088,-0.0630,-0.0011,0.0003,0.0002,135.0000,50.37562931,16.28175891,0.00000000,
13:21:32:550,0.0324,0.0096,1.0046,0.0108,0.0088,-0.0630,0.0008,0.0005,-0.0002,135.0000,50.37562931,16.28175891,0.00000000,
13:21:32:564,0.0324,0.0096,1.0046,0.0073,0.0005,-0.0560,0.0008,0.0005,-0.0002,135.0000,50.37562931,16.28175891,0.00000000,
13:21:32:607,0.0317,0.0083,1.0041,0.0073,0.0005,-0.0560,0.0008,0.0005,-0.0002,135.0000,50.37562931,16.28175891,0.00000000,
13:21:32:616,0.0317,0.0083,1.0041,0.0073,0.0005,-0.0560,-0.0005,-0.0003,-0.0003,135.0000,50.37562931,16.28175891,0.00000000,
13:21:32:633,0.0317,0.0083,1.0041,0.0135,0.0184,-0.0511,-0.0005,-0.0003,-0.0003,135.0000,50.37562931,16.28175891,0.00000000,
13:21:32:645,0.0317,0.0083,1.0041,0.0135,0.0184,-0.0511,-0.0005,-0.0003,-0.0003,138.9825,50.37562931,16.28175891,0.00000000,
13:21:32:675,0.0325,0.0090,1.0044,0.0135,0.0184,-0.0511,-0.0005,-0.0003,-0.0003,138.9825,50.37562931,16.28175891,0.00000000,
13:21:32:684,0.0325,0.0090,1.0044,0.0135,0.0184,-0.0511,0.0009,-0.0006,-0.0003,138.9825,50.37562931,16.28175891,0.00000000,
13:21:32:701,0.0325,0.0090,1.0044,0.0045,-0.0052,-0.0465,0.0009,-0.0006,-0.0003,138.9825,50.37562931,16.28175891,0.00000000,
13:21:32:744,0.0324,0.0115,1.0049,0.0045,-0.0052,-0.0465,0.0009,-0.0006,-0.0003,138.9825,50.37562931,16.28175891,0.00000000,
13:21:32:751,0.0324,0.0115,1.0049,0.0045,-0.0052,-0.0465,0.0006,-0.0002,-0.0005,138.9825,50.37562931,16.28175891,0.00000000,
13:21:32:768,0.0324,0.0115,1.0049,0.0017,0.0024,-0.0362,0.0006,-0.0002,-0.0005,138.9825,50.37562931,16.28175891,0.00000000,
13:21:32:805,0.0324,0.0115,1.0049,0.0017,0.0024,-0.0362,0.0006,-0.0002,-0.0005,150.9975,50.37562931,16.28175891,0.00000000,
13:21:32:811,0.0324,0.0096,1.0038,0.0017,0.0024,-0.0362,0.0006,-0.0002,-0.0005,150.9975,50.37562931,16.28175891,0.00000000,
13:21:32:819,0.0324,0.0096,1.0038,0.0017,0.0024,-0.0362,0.0027,0.0066,-0.0003,150.9975,50.37562931,16.28175891,0.00000000,
13:21:32:835,0.0324,0.0096,1.0038,0.0316,-0.0019,-0.0348,0.0027,0.0066,-0.0003,150.9975,50.37562931,16.28175891,0.00000000,
13:21:32:878,0.0315,0.0110,1.0064,0.0316,-0.0019,-0.0348,0.0027,0.0066,-0.0003,150.9975,50.37562931,16.28175891,0.00000000,
13:21:32:888,0.0315,0.0110,1.0064,0.0316,-0.0019,-0.0348,-0.0009,-0.0032,0.0000,150.9975,50.37562931,16.28175891,0.00000000,
13:21:32:905,0.0315,0.0110,1.0064,0.0064,0.0031,-0.0048,-0.0009,-0.0032,0.0000,150.9975,50.37562931,16.28175891,0.00000000,
13:21:32:946,0.0311,0.0099,1.0017,0.0064,0.0031,-0.0048,-0.0009,-0.0032,0.0000,150.9975,50.37562931,16.28175891,0.00000000,
13:21:32:955,0.0311,0.0099,1.0017,0.0064,0.0031,-0.0048,-0.0006,-0.0011,-0.0000,150.9975,50.37562931,16.28175891,0.00000000,
