
time,gFx,gFy,gFz,ax,ay,az,I,Latitude,Longitude,Speed (m/s),
13:54:28:361,0.1522,0.1935,0.9910,0.0000,0.0000,0.0000,0.0000,0.00000000,0.00000000,0.00000000,
13:54:28:362,0.2964,0.1709,0.8878,0.0000,0.0000,0.0000,0.0000,50.37558215,16.28174965,0.31999999,
13:54:28:363,0.2964,0.1709,0.8878,0.0000,0.0000,0.0000,614.9926,50.37558215,16.28174965,0.31999999,
13:54:28:407,0.2964,0.1709,0.8878,0.0000,0.0000,0.0000,614.9926,50.37558215,16.28174965,0.31999999,
13:54:28:429,0.2990,0.1798,0.7982,0.0000,0.0000,0.0000,614.9926,50.37558215,16.28174965,0.31999999,
13:54:28:431,0.2349,0.1941,0.7659,0.0000,0.0000,0.0000,614.9926,50.37558215,16.28174965,0.31999999,
13:54:28:432,0.2086,0.1998,0.7746,0.0000,0.0000,0.0000,614.9926,50.37558215,16.28174965,0.31999999,
13:54:28:434,0.2086,0.1998,0.7746,0.0000,0.0000,0.0000,525.0150,50.37558215,16.28174965,0.31999999,
13:54:28:474,0.2086,0.1998,0.7746,0.0000,0.0000,0.0000,525.0150,50.37558215,16.28174965,0.31999999,
13:54:28:491,0.2086,0.1998,0.7746,0.0000,0.0000,0.0000,525.0150,50.37558215,16.28174965,0.31999999,
13:54:28:495,0.2223,0.1928,0.7630,0.0000,0.0000,0.0000,525.0150,50.37558215,16.28174965,0.31999999,
13:54:28:497,0.2425,0.1939,0.7292,0.0000,0.0000,0.0000,525.0150,50.37558215,16.28174965,0.31999999,
13:54:28:498,0.2468,0.1880,0.6961,0.0000,0.0000,0.0000,525.0150,50.37558215,16.28174965,0.31999999,
13:54:28:543,0.2468,0.1880,0.6961,0.0000,0.0000,0.0000,525.0150,50.37558215,16.28174965,0.31999999,
13:54:28:558,0.2468,0.1880,0.6961,0.0110,-0.0133,-0.2857,525.0150,50.37558215,16.28174965,0.31999999,
13:54:28:562,0.2328,0.1915,0.7084,0.0110,-0.0133,-0.2857,525.0150,50.37558215,16.28174965,0.31999999,
13:54:28:563,0.2226,0.1864,0.7440,0.0110,-0.0133,-0.2857,525.0150,50.37558215,16.28174965,0.31999999,
13:54:28:564,0.2150,0.1802,0.7942,0.0110,-0.0133,-0.2857,525.0150,50.37558215,16.28174965,0.31999999,
13:54:28:595,0.2150,0.1802,0.7942,0.0110,-0.0133,-0.2857,472.9725,50.37558215,16.28174965,0.31999999,
13:54:28:596,0.2044,0.1940,0.8404,0.0110,-0.0133,-0.2857,472.9725,50.37558215,16.28174965,0.31999999,
13:54:28:597,0.1904,0.1862,0.8745,0.0110,-0.0133,-0.2857,472.9725,50.37558215,16.28174965,0.31999999,
13:54:28:610,0.1904,0.1862,0.8745,0.0110,-0.0133,-0.2857,472.9725,50.37558215,16.28174965,0.31999999,
13:54:28:626,0.1904,0.1862,0.8745,-0.0428,-0.0697,0.1037,472.9725,50.37558215,16.28174965,0.31999999,
13:54:28:661,0.2018,0.1823,0.8916,-0.0428,-0.0697,0.1037,472.9725,50.37558215,16.28174965,0.31999999,
13:54:28:663,0.1937,0.1676,0.9293,-0.0428,-0.0697,0.1037,472.9725,50.37558215,16.28174965,0.31999999,
13:54:28:664,0.1636,0.1785,0.9459,-0.0428,-0.0697,0.1037,472.9725,50.37558215,16.28174965,0.31999999,
13:54:28:678,0.1636,0.1785,0.9459,-0.0428,-0.0697,0.1037,472.9725,50.37558215,16.28174965,0.31999999,
13:54:28:694,0.1636,0.1785,0.9459,-0.0415,-0.2300,0.9492,472.9725,50.37558215,16.28174965,0.31999999,
13:54:28:728,0.1248,0.2003,0.9110,-0.0415,-0.2300,0.9492,472.9725,50.37558215,16.28174965,0.31999999,
13:54:28:730,0.0912,0.2141,0.8886,-0.0415,-0.2300,0.9492,472.9725,50.37558215,16.28174965,0.31999999,
13:54:28:731,0.0296,0.2111,0.8836,-0.0415,-0.2300,0.9492,472.9725,50.37558215,16.28174965,0.31999999,
13:54:28:746,0.0296,0.2111,0.8836,-0.0415,-0.2300,0.9492,472.9725,50.37558215,16.28174965,0.31999999,
13:54:28:754,0.0296,0.2111,0.8836,-0.0415,-0.2300,0.9492,466.0200,50.37558215,16.28174965,0.31999999,
13:54:28:756,0.0005,0.1947,0.8817,-0.0415,-0.2300,0.9492,466.0200,50.37558215,16.28174965,0.31999999,
13:54:28:763,0.0005,0.1947,0.8817,-0.4195,-0.2488,0.9911,466.0200,50.37558215,16.28174965,0.31999999,
13:54:28:813,0.0005,0.1947,0.8817,-0.4195,-0.2488,0.9911,466.0200,50.37558215,16.28174965,0.31999999,
13:54:28:820,-0.0007,0.1930,0.8676,-0.4195,-0.2488,0.9911,466.0200,50.37558215,16.28174965,0.31999999,
13:54:28:822,0.0121,0.2303,0.8492,-0.4195,-0.2488,0.9911,466.0200,50.37558215,16.28174965,0.31999999,
13:54:28:824,-0.0321,0.2715,0.8908,-0.4195,-0.2488,0.9911,466.0200,50.37558215,16.28174965,0.31999999,
13:54:28:831,-0.0321,0.2715,0.8908,-1.2559,-0.2293,0.4748,466.0200,50.37558215,16.28174965,0.31999999,
13:54:28:881,-0.0321,0.2715,0.8908,-1.2559,-0.2293,0.4748,466.0200,50.37558215,16.28174965,0.31999999,
13:54:28:887,-0.0327,0.2426,0.9526,-1.2559,-0.2293,0.4748,466.0200,50.37558215,16.28174965,0.31999999,
13:54:28:890,-0.0109,0.2191,0.9842,-1.2559,-0.2293,0.4748,466.0200,50.37558215,16.28174965,0.31999999,
13:54:28:893,0.0087,0.1913,0.9971,-1.2559,-0.2293,0.4748,466.0200,50.37558215,16.28174965,0.31999999,
13:54:28:896,-0.0042,0.2223,0.9798,-1.2559,-0.2293,0.4748,466.0200,50.37558215,16.28174965,0.31999999,
13:54:28:900,-0.0042,0.2223,0.9798,-1.0263,0.0825,0.7187,466.0200,50.37558215,16.28174965,0.31999999,
13:54:28:914,-0.0042,0.2223,0.9798,-1.0263,0.0825,0.7187,459.0000,50.37558215,16.28174965,0.31999999,
13:54:28:916,-0.0125,0.2898,0.9283,-1.0263,0.0825,0.7187,459.0000,50.37558215,16.28174965,0.31999999,
13:54:28:947,-0.0199,0.3397,0.8996,-1.0263,0.0825,0.7187,459.0000,50.37558215,16.28174965,0.31999999,
13:54:28:951,-0.0199,0.3397,0.8996,-1.0263,0.0825,0.7187,459.0000,50.37558215,16.28174965,0.31999999,
13:54:28:980,-0.0199,0.3397,0.8996,-0.3984,-0.4399,1.2519,459.0000,50.37558215,16.28174965,0.31999999,
13:54:28:981,-0.0845,0.3114,0.8491,-0.3984,-0.4399,1.2519,459.0000,50.37558215,16.28174965,0.31999999,
13:54:28:983,-0.1864,0.2932,0.8010,-0.3984,-0.4399,1.2519,459.0000,50.37558215,16.28174965,0.31999999,
13:54:28:997,-0.2608,0.3122,0.7887,-0.3984,-0.4399,1.2519,459.0000,50.37558215,16.28174965,0.31999999,
13:54:29:016,-0.2608,0.3122,0.7887,-0.3984,-0.4399,1.2519,459.0000,50.37557713,16.28173736,0.33000001,
13:54:29:034,-0.2608,0.3122,0.7887,-0.5292,0.5140,0.0793,459.0000,50.37557713,16.28173736,0.33000001,
13:54:29:064,-0.2102,0.3166,0.8123,-0.5292,0.5140,0.0793,459.0000,50.37557713,16.28173736,0.33000001,
13:54:29:066,-0.2210,0.3510,0.8155,-0.5292,0.5140,0.0793,459.0000,50.37557713,16.28173736,0.33000001,
13:54:29:068,-0.2404,0.3566,0.8111,-0.5292,0.5140,0.0793,459.0000,50.37557713,16.28173736,0.33000001,
13:54:29:073,-0.2404,0.3566,0.8111,-0.5292,0.5140,0.0793,463.9950,50.37557713,16.28173736,0.33000001,
13:54:29:084,-0.2404,0.3566,0.8111,-0.5292,0.5140,0.0793,463.9950,50.37557713,16.28173736,0.33000001,
13:54:29:102,-0.2404,0.3566,0.8111,-1.5569,0.8669,-0.5355,463.9950,50.37557713,16.28173736,0.33000001,
13:54:29:140,-0.1983,0.2954,0.8575,-1.5569,0.8669,-0.5355,463.9950,50.37557713,16.28173736,0.33000001,
13:54:29:143,-0.1724,0.2639,0.9844,-1.5569,0.8669,-0.5355,463.9950,50.37557713,16.28173736,0.33000001,
13:54:29:145,-0.2058,0.2801,1.0060,-1.5569,0.8669,-0.5355,463.9950,50.37557713,16.28173736,0.33000001,
13:54:29:147,-0.1911,0.2805,1.0522,-1.5569,0.8669,-0.5355,463.9950,50.37557713,16.28173736,0.33000001,
13:54:29:152,-0.1911,0.2805,1.0522,-1.5569,0.8669,-0.5355,463.9950,50.37557713,16.28173736,0.33000001,
13:54:29:169,-0.1911,0.2805,1.0522,-1.1186,0.7835,0.2403,463.9950,50.37557713,16.28173736,0.33000001,
13:54:29:207,-0.1789,0.2663,1.0442,-1.1186,0.7835,0.2403,463.9950,50.37557713,16.28173736,0.33000001,
13:54:29:210,-0.1915,0.2616,0.9662,-1.1186,0.7835,0.2403,463.9950,50.37557713,16.28173736,0.33000001,
13:54:29:213,-0.2163,0.2932,0.8977,-1.1186,0.7835,0.2403,463.9950,50.37557713,16.28173736,0.33000001,
13:54:29:221,-0.2163,0.2932,0.8977,-1.1186,0.7835,0.2403,463.9950,50.37557713,16.28173736,0.33000001,
13:54:29:234,-0.2163,0.2932,0.8977,-1.1186,0.7835,0.2403,483.9750,50.37557713,16.28173736,0.33000001,
13:54:29:235,-0.2854,0.3682,0.9078,-1.1186,0.7835,0.2403,483.9750,50.37557713,16.28173736,0.33000001,
13:54:29:238,-0.2854,0.3682,0.9078,-0.8071,0.4432,1.4543,483.9750,50.37557713,16.28173736,0.33000001,
13:54:29:288,-0.2854,0.3682,0.9078,-0.8071,0.4432,1.4543,483.9750,50.37557713,16.28173736,0.33000001,
13:54:29:301,-0.2466,0.3236,0.9377,-0.8071,0.4432,1.4543,483.9750,50.37557713,16.28173736,0.33000001,
13:54:29:305,-0.2308,0.3316,0.8868,-0.8071,0.4432,1.4543,483.9750,50.37557713,16.28173736,0.33000001,
13:54:29:306,-0.1995,0.3048,0.8788,-0.8071,0.4432,1.4543,483.9750,50.37557713,16.28173736,0.33000001,
13:54:29:309,-0.1995,0.3048,0.8788,-1.5631,1.1332,0.1704,483.9750,50.37557713,16.28173736,0.33000001,
13:54:29:356,-0.1995,0.3048,0.8788,-1.5631,1.1332,0.1704,483.9750,50.37557713,16.28173736,0.33000001,
13:54:29:368,-0.1801,0.2915,0.9933,-1.5631,1.1332,0.1704,483.9750,50.37557713,16.28173736,0.33000001,
13:54:29:371,-0.1198,0.2942,1.1567,-1.5631,1.1332,0.1704,483.9750,50.37557713,16.28173736,0.33000001,
13:54:29:375,0.0189,0.0955,1.1492,-1.5631,1.1332,0.1704,483.9750,50.37557713,16.28173736,0.33000001,
13:54:29:378,0.0189,0.0955,1.1492,-1.7880,1.2517,0.0022,483.9750,50.37557713,16.28173736,0.33000001,
13:54:29:393,0.0189,0.0955,1.1492,-1.7880,1.2517,0.0022,473.9850,50.37557713,16.28173736,0.33000001,
13:54:29:394,0.2051,-0.0082,1.0909,-1.7880,1.2517,0.0022,473.9850,50.37557713,16.28173736,0.33000001,
13:54:29:396,0.1837,0.0806,1.1316,-1.7880,1.2517,0.0022,473.9850,50.37557713,16.28173736,0.33000001,
13:54:29:424,0.1837,0.0806,1.1316,-1.7880,1.2517,0.0022,473.9850,50.37557713,16.28173736,0.33000001,
13:54:29:440,0.1837,0.0806,1.1316,0.4322,-1.0129,2.0391,473.9850,50.37557713,16.28173736,0.33000001,
13:54:29:460,0.0621,0.1365,1.2404,0.4322,-1.0129,2.0391,473.9850,50.37557713,16.28173736,0.33000001,
13:54:29:461,0.0146,0.1953,1.1054,0.4322,-1.0129,2.0391,473.9850,50.37557713,16.28173736,0.33000001,
13:54:29:463,0.0537,0.1979,0.8161,0.4322,-1.0129,2.0391,473.9850,50.37557713,16.28173736,0.33000001,
13:54:29:491,0.0537,0.1979,0.8161,0.4322,-1.0129,2.0391,473.9850,50.37557713,16.28173736,0.33000001,
13:54:29:508,0.0537,0.1979,0.8161,0.6791,-1.5241,2.1486,473.9850,50.37557713,16.28173736,0.33000001,
13:54:29:527,0.0501,0.2770,0.6781,0.6791,-1.5241,2.1486,473.9850,50.37557713,16.28173736,0.33000001,
13:54:29:529,0.1215,0.2919,0.6117,0.6791,-1.5241,2.1486,473.9850,50.37557713,16.28173736,0.33000001,
13:54:29:530,0.1032,0.3885,0.6343,0.6791,-1.5241,2.1486,473.9850,50.37557713,16.28173736,0.33000001,
13:54:29:554,0.1032,0.3885,0.6343,0.6791,-1.5241,2.1486,440.9775,50.37557713,16.28173736,0.33000001,
13:54:29:557,-0.3674,0.6077,0.7189,0.6791,-1.5241,2.1486,440.9775,50.37557713,16.28173736,0.33000001,
13:54:29:562,-0.3674,0.6077,0.7189,0.6791,-1.5241,2.1486,440.9775,50.37557713,16.28173736,0.33000001,
13:54:29:576,-0.3674,0.6077,0.7189,0.6770,-0.0273,-2.2155,440.9775,50.37557713,16.28173736,0.33000001,
13:54:29:621,-0.2023,0.2925,0.8082,0.6770,-0.0273,-2.2155,440.9775,50.37557713,16.28173736,0.33000001,
13:54:29:623,-0.1176,0.3462,0.9800,0.6770,-0.0273,-2.2155,440.9775,50.37557713,16.28173736,0.33000001,
13:54:29:625,0.1119,0.3257,1.0080,0.6770,-0.0273,-2.2155,440.9775,50.37557713,16.28173736,0.33000001,
13:54:29:626,0.1119,0.3257,1.0080,0.6770,-0.0273,-2.2155,440.9775,50.37557713,16.28173736,0.33000001,
13:54:29:644,0.1119,0.3257,1.0080,-1.8717,1.5254,-1.1466,440.9775,50.37557713,16.28173736,0.33000001,
13:54:29:687,0.0545,0.4062,0.9992,-1.8717,1.5254,-1.1466,440.9775,50.37557713,16.28173736,0.33000001,
13:54:29:689,-0.0477,0.4108,0.9261,-1.8717,1.5254,-1.1466,440.9775,50.37557713,16.28173736,0.33000001,
13:54:29:690,-0.1423,0.3809,0.8611,-1.8717,1.5254,-1.1466,440.9775,50.37557713,16.28173736,0.33000001,
13:54:29:694,-0.1423,0.3809,0.8611,-1.8717,1.5254,-1.1466,440.9775,50.37557713,16.28173736,0.33000001,
13:54:29:712,-0.1423,0.3809,0.8611,0.6579,1.1001,0.7386,440.9775,50.37557713,16.28173736,0.33000001,
13:54:29:713,-0.1423,0.3809,0.8611,0.6579,1.1001,0.7386,430.9875,50.37557713,16.28173736,0.33000001,
13:54:29:715,-0.2688,0.3814,0.9043,0.6579,1.1001,0.7386,430.9875,50.37557713,16.28173736,0.33000001,
13:54:29:717,-0.2431,0.3261,0.9778,0.6579,1.1001,0.7386,430.9875,50.37557713,16.28173736,0.33000001,
13:54:29:763,-0.2431,0.3261,0.9778,0.6579,1.1001,0.7386,430.9875,50.37557713,16.28173736,0.33000001,
13:54:29:783,-0.2431,0.3261,0.9778,-1.2893,0.9764,0.0198,430.9875,50.37557713,16.28173736,0.33000001,
13:54:29:787,-0.2147,0.3235,1.0224,-1.2893,0.9764,0.0198,430.9875,50.37557713,16.28173736,0.33000001,
13:54:29:790,-0.1997,0.3351,1.0527,-1.2893,0.9764,0.0198,430.9875,50.37557713,16.28173736,0.33000001,
13:54:29:794,-0.1945,0.3573,0.9819,-1.2893,0.9764,0.0198,430.9875,50.37557713,16.28173736,0.33000001,
13:54:29:830,-0.1945,0.3573,0.9819,-1.2893,0.9764,0.0198,430.9875,50.37557713,16.28173736,0.33000001,
13:54:29:848,-0.1945,0.3573,0.9819,-0.9898,0.6174,0.9029,430.9875,50.37557713,16.28173736,0.33000001,
13:54:29:851,-0.2111,0.3390,0.9073,-0.9898,0.6174,0.9029,430.9875,50.37557713,16.28173736,0.33000001,
13:54:29:853,-0.1937,0.2909,0.8696,-0.9898,0.6174,0.9029,430.9875,50.37557713,16.28173736,0.33000001,
13:54:29:854,-0.2130,0.2760,0.9027,-0.9898,0.6174,0.9029,430.9875,50.37557713,16.28173736,0.33000001,
13:54:29:873,-0.2130,0.2760,0.9027,-0.9898,0.6174,0.9029,440.0325,50.37557713,16.28173736,0.33000001,
13:54:29:875,-0.1521,0.2546,0.9521,-0.9898,0.6174,0.9029,440.0325,50.37557713,16.28173736,0.33000001,
13:54:29:898,-0.1521,0.2546,0.9521,-0.9898,0.6174,0.9029,440.0325,50.37557713,16.28173736,0.33000001,
13:54:29:916,-0.1521,0.2546,0.9521,-0.9817,0.1536,-0.2254,440.0325,50.37557713,16.28173736,0.33000001,
13:54:29:940,-0.0646,0.2401,0.9261,-0.9817,0.1536,-0.2254,440.0325,50.37557713,16.28173736,0.33000001,
13:54:29:941,-0.0524,0.2348,0.8448,-0.9817,0.1536,-0.2254,440.0325,50.37557713,16.28173736,0.33000001,
13:54:29:943,-0.0709,0.2307,0.7911,-0.9817,0.1536,-0.2254,440.0325,50.37557713,16.28173736,0.33000001,
13:54:29:967,-0.0709,0.2307,0.7911,-0.9817,0.1536,-0.2254,440.0325,50.37557713,16.28173736,0.33000001,
13:54:29:968,-0.0099,0.2229,0.8622,-0.9817,0.1536,-0.2254,440.0325,50.37557713,16.28173736,0.33000001,
13:54:29:969,0.0790,0.2028,1.0201,-0.9817,0.1536,-0.2254,440.0325,50.37557713,16.28173736,0.33000001,
13:54:29:983,0.0790,0.2028,1.0201,0.0908,0.0337,-0.4501,440.0325,50.37557713,16.28173736,0.33000001,
13:54:30:010,0.1497,0.1530,1.1267,0.0908,0.0337,-0.4501,440.0325,50.37557713,16.28173736,0.33000001,
13:54:30:012,0.1923,0.1402,1.1843,0.0908,0.0337,-0.4501,440.0325,50.37557713,16.28173736,0.33000001,
13:54:30:034,0.1923,0.1402,1.1843,0.0908,0.0337,-0.4501,439.0200,50.37557713,16.28173736,0.33000001,
13:54:30:037,0.1923,0.1402,1.1843,0.0908,0.0337,-0.4501,439.0200,50.37557713,16.28173736,0.33000001,
13:54:30:039,0.1756,0.1198,1.1538,0.0908,0.0337,-0.4501,439.0200,50.37557713,16.28173736,0.33000001,
13:54:30:051,0.1756,0.1198,1.1538,0.8554,-0.0796,0.2516,439.0200,50.37557713,16.28173736,0.33000001,
13:54:30:101,0.2675,0.1820,1.1124,0.8554,-0.0796,0.2516,439.0200,50.37557713,16.28173736,0.33000001,
13:54:30:104,0.3050,0.2271,1.0547,0.8554,-0.0796,0.2516,439.0200,50.37557713,16.28173736,0.33000001,
13:54:30:107,0.3415,0.2418,0.9664,0.8554,-0.0796,0.2516,439.0200,50.37557713,16.28173736,0.33000001,
13:54:30:110,0.3415,0.2418,0.9664,0.8554,-0.0796,0.2516,439.0200,50.37557713,16.28173736,0.33000001,
13:54:30:119,0.3415,0.2418,0.9664,2.0791,-0.5860,1.8520,439.0200,50.37557713,16.28173736,0.33000001,
13:54:30:167,0.3485,0.2770,0.8896,2.0791,-0.5860,1.8520,439.0200,50.37557713,16.28173736,0.33000001,
13:54:30:171,0.3117,0.2868,0.8773,2.0791,-0.5860,1.8520,439.0200,50.37557713,16.28173736,0.33000001,
13:54:30:174,0.2863,0.2719,0.9220,2.0791,-0.5860,1.8520,439.0200,50.37557713,16.28173736,0.33000001,
13:54:30:177,0.2863,0.2719,0.9220,2.0791,-0.5860,1.8520,439.0200,50.37557713,16.28173736,0.33000001,
13:54:30:186,0.2863,0.2719,0.9220,3.0228,0.5937,-0.0238,439.0200,50.37557713,16.28173736,0.33000001,
13:54:30:194,0.2863,0.2719,0.9220,3.0228,0.5937,-0.0238,451.9800,50.37557713,16.28173736,0.33000001,
13:54:30:196,0.2455,0.2520,0.9179,3.0228,0.5937,-0.0238,451.9800,50.37557713,16.28173736,0.33000001,
13:54:30:237,0.2455,0.2520,0.9179,3.0228,0.5937,-0.0238,451.9800,50.37557713,16.28173736,0.33000001,
13:54:30:255,0.2455,0.2520,0.9179,2.2917,0.9303,-0.5171,451.9800,50.37557713,16.28173736,0.33000001,
13:54:30:261,0.1832,0.2721,0.9773,2.2917,0.9303,-0.5171,451.9800,50.37557713,16.28173736,0.33000001,
13:54:30:262,0.1503,0.2277,1.0263,2.2917,0.9303,-0.5171,451.9800,50.37557713,16.28173736,0.33000001,
13:54:30:264,0.1532,0.2072,1.0514,2.2917,0.9303,-0.5171,451.9800,50.37557713,16.28173736,0.33000001,
13:54:30:305,0.1532,0.2072,1.0514,2.2917,0.9303,-0.5171,451.9800,50.37557713,16.28173736,0.33000001,
13:54:30:322,0.1532,0.2072,1.0514,1.1494,0.4315,0.6065,451.9800,50.37557713,16.28173736,0.33000001,
13:54:30:328,0.1672,0.1857,1.0706,1.1494,0.4315,0.6065,451.9800,50.37557713,16.28173736,0.33000001,
13:54:30:329,0.1623,0.1989,1.0849,1.1494,0.4315,0.6065,451.9800,50.37557713,16.28173736,0.33000001,
13:54:30:331,0.1246,0.1868,1.0588,1.1494,0.4315,0.6065,451.9800,50.37557713,16.28173736,0.33000001,
13:54:30:333,0.0881,0.1840,1.0323,1.1494,0.4315,0.6065,451.9800,50.37557713,16.28173736,0.33000001,
13:54:30:354,0.0841,0.1933,1.0122,1.1494,0.4315,0.6065,451.9800,50.37557713,16.28173736,0.33000001,
13:54:30:356,0.0841,0.1933,1.0122,1.1494,0.4315,0.6065,473.9850,50.37557713,16.28173736,0.33000001,
13:54:30:373,0.0841,0.1933,1.0122,1.1494,0.4315,0.6065,473.9850,50.37557713,16.28173736,0.33000001,
13:54:30:389,0.0841,0.1933,1.0122,0.9420,0.0780,0.7826,473.9850,50.37557713,16.28173736,0.33000001,
13:54:30:421,0.0936,0.1894,1.0167,0.9420,0.0780,0.7826,473.9850,50.37557713,16.28173736,0.33000001,
13:54:30:424,0.0899,0.1947,1.0327,0.9420,0.0780,0.7826,473.9850,50.37557713,16.28173736,0.33000001,
13:54:30:429,0.0657,0.1983,1.0136,0.9420,0.0780,0.7826,473.9850,50.37557713,16.28173736,0.33000001,
13:54:30:441,0.0657,0.1983,1.0136,0.9420,0.0780,0.7826,473.9850,50.37557713,16.28173736,0.33000001,
13:54:30:457,0.0657,0.1983,1.0136,0.5525,-0.0153,0.3330,473.9850,50.37557713,16.28173736,0.33000001,
13:54:30:487,0.0543,0.2055,0.9918,0.5525,-0.0153,0.3330,473.9850,50.37557713,16.28173736,0.33000001,
13:54:30:491,0.0637,0.2058,1.0140,0.5525,-0.0153,0.3330,473.9850,50.37557713,16.28173736,0.33000001,
13:54:30:495,0.0773,0.2057,1.0073,0.5525,-0.0153,0.3330,473.9850,50.37557713,16.28173736,0.33000001,
13:54:30:508,0.0773,0.2057,1.0073,0.5525,-0.0153,0.3330,473.9850,50.37557713,16.28173736,0.33000001,
13:54:30:514,0.0773,0.2057,1.0073,0.5525,-0.0153,0.3330,482.0175,50.37557713,16.28173736,0.33000001,
13:54:30:516,0.0978,0.2134,0.9861,0.5525,-0.0153,0.3330,482.0175,50.37557713,16.28173736,0.33000001,
13:54:30:525,0.0978,0.2134,0.9861,0.3011,-0.1649,0.2281,482.0175,50.37557713,16.28173736,0.33000001,
13:54:30:576,0.0978,0.2134,0.9861,0.3011,-0.1649,0.2281,482.0175,50.37557713,16.28173736,0.33000001,
13:54:30:581,0.0577,0.2234,0.9407,0.3011,-0.1649,0.2281,482.0175,50.37557713,16.28173736,0.33000001,
13:54:30:583,0.0211,0.2362,0.9055,0.3011,-0.1649,0.2281,482.0175,50.37557713,16.28173736,0.33000001,
13:54:30:584,0.0309,0.2467,0.8755,0.3011,-0.1649,0.2281,482.0175,50.37557713,16.28173736,0.33000001,
13:54:30:587,0.0347,0.2616,0.8933,0.3011,-0.1649,0.2281,482.0175,50.37557713,16.28173736,0.33000001,
13:54:30:593,0.0347,0.2616,0.8933,0.4725,-0.1737,-0.0962,482.0175,50.37557713,16.28173736,0.33000001,
13:54:30:646,0.0347,0.2616,0.8933,0.4725,-0.1737,-0.0962,482.0175,50.37557713,16.28173736,0.33000001,
13:54:30:649,0.0245,0.2668,0.9121,0.4725,-0.1737,-0.0962,482.0175,50.37557713,16.28173736,0.33000001,
13:54:30:650,0.0150,0.2694,0.9179,0.4725,-0.1737,-0.0962,482.0175,50.37557713,16.28173736,0.33000001,
13:54:30:652,-0.0067,0.2660,0.9284,0.4725,-0.1737,-0.0962,482.0175,50.37557713,16.28173736,0.33000001,
13:54:30:662,-0.0067,0.2660,0.9284,0.2048,0.0500,-0.7298,482.0175,50.37557713,16.28173736,0.33000001,
13:54:30:712,-0.0067,0.2660,0.9284,0.2048,0.0500,-0.7298,482.0175,50.37557713,16.28173736,0.33000001,
13:54:30:716,-0.0217,0.2722,0.9122,0.2048,0.0500,-0.7298,482.0175,50.37557713,16.28173736,0.33000001,
13:54:30:719,-0.0463,0.3060,0.9194,0.2048,0.0500,-0.7298,482.0175,50.37557713,16.28173736,0.33000001,
13:54:30:722,-0.0255,0.2883,0.9333,0.2048,0.0500,-0.7298,482.0175,50.37557713,16.28173736,0.33000001,
13:54:30:729,-0.0255,0.2883,0.9333,0.1269,0.0774,-0.3890,482.0175,50.37557713,16.28173736,0.33000001,
13:54:30:780,-0.0255,0.2883,0.9333,0.1269,0.0774,-0.3890,482.0175,50.37557713,16.28173736,0.33000001,
13:54:30:781,-0.0328,0.2838,0.9327,0.1269,0.0774,-0.3890,482.0175,50.37557713,16.28173736,0.33000001,
13:54:30:783,-0.0729,0.3456,0.9236,0.1269,0.0774,-0.3890,482.0175,50.37557713,16.28173736,0.33000001,
13:54:30:785,-0.0637,0.3182,0.8863,0.1269,0.0774,-0.3890,482.0175,50.37557713,16.28173736,0.33000001,
13:54:30:796,-0.0637,0.3182,0.8863,0.0326,0.2382,-0.2462,482.0175,50.37557713,16.28173736,0.33000001,
13:54:30:833,-0.0637,0.3182,0.8863,0.0326,0.2382,-0.2462,484.9875,50.37557713,16.28173736,0.33000001,
13:54:30:835,-0.0671,0.3293,0.8529,0.0326,0.2382,-0.2462,484.9875,50.37557713,16.28173736,0.33000001,
13:54:30:836,-0.0636,0.3273,0.8253,0.0326,0.2382,-0.2462,484.9875,50.37557713,16.28173736,0.33000001,
13:54:30:848,-0.0636,0.3273,0.8253,0.0326,0.2382,-0.2462,484.9875,50.37557713,16.28173736,0.33000001,
13:54:30:864,-0.0636,0.3273,0.8253,0.0036,0.7457,-0.6538,484.9875,50.37557713,16.28173736,0.33000001,
13:54:30:900,-0.0748,0.2800,0.8397,0.0036,0.7457,-0.6538,484.9875,50.37557713,16.28173736,0.33000001,
13:54:30:902,-0.0801,0.3073,0.9126,0.0036,0.7457,-0.6538,484.9875,50.37557713,16.28173736,0.33000001,
13:54:30:903,-0.1639,0.3318,0.9921,0.0036,0.7457,-0.6538,484.9875,50.37557713,16.28173736,0.33000001,
13:54:30:905,-0.1942,0.2783,1.0049,0.0036,0.7457,-0.6538,484.9875,50.37557713,16.28173736,0.33000001,
13:54:30:916,-0.1942,0.2783,1.0049,0.0036,0.7457,-0.6538,484.9875,50.37557713,16.28173736,0.33000001,
13:54:30:932,-0.1942,0.2783,1.0049,0.0820,0.7582,-0.6804,484.9875,50.37557713,16.28173736,0.33000001,
13:54:30:966,-0.2438,0.2707,1.0255,0.0820,0.7582,-0.6804,484.9875,50.37557713,16.28173736,0.33000001,
13:54:30:968,-0.2039,0.2309,1.0550,0.0820,0.7582,-0.6804,484.9875,50.37557713,16.28173736,0.33000001,
13:54:30:968,-0.0929,0.2181,1.0499,0.0820,0.7582,-0.6804,484.9875,50.37557713,16.28173736,0.33000001,
13:54:30:982,-0.0929,0.2181,1.0499,0.0820,0.7582,-0.6804,484.9875,50.37557713,16.28173736,0.33000001,
13:54:30:993,-0.0929,0.2181,1.0499,0.0820,0.7582,-0.6804,563.0175,50.37557713,16.28173736,0.33000001,
13:54:30:994,-0.0676,0.1937,1.0149,0.0820,0.7582,-0.6804,563.0175,50.37557713,16.28173736,0.33000001,
13:54:31:000,-0.0676,0.1937,1.0149,-0.9381,0.3928,0.6321,563.0175,50.37557713,16.28173736,0.33000001,
13:54:31:018,-0.1315,0.1553,1.0317,-0.9381,0.3928,0.6321,563.0175,50.37557713,16.28173736,0.33000001,
13:54:31:051,-0.1315,0.1553,1.0317,-0.9381,0.3928,0.6321,563.0175,50.37557713,16.28173736,0.33000001,
13:54:31:062,-0.1229,0.1131,1.1409,-0.9381,0.3928,0.6321,563.0175,50.37557713,16.28173736,0.33000001,
13:54:31:064,-0.0778,0.0879,1.2103,-0.9381,0.3928,0.6321,563.0175,50.37557713,16.28173736,0.33000001,
13:54:31:068,-0.0778,0.0879,1.2103,0.2294,-0.2631,0.6985,563.0175,50.37557713,16.28173736,0.33000001,
13:54:31:118,-0.0778,0.0879,1.2103,0.2294,-0.2631,0.6985,563.0175,50.37557713,16.28173736,0.33000001,
13:54:31:130,-0.0192,0.0618,1.2202,0.2294,-0.2631,0.6985,563.0175,50.37557713,16.28173736,0.33000001,
13:54:31:133,0.0368,0.0391,1.1935,0.2294,-0.2631,0.6985,563.0175,50.37557713,16.28173736,0.33000001,
13:54:31:136,0.0529,0.0292,1.1709,0.2294,-0.2631,0.6985,563.0175,50.37557713,16.28173736,0.33000001,
13:54:31:139,0.0529,0.0292,1.1709,0.3809,-1.2950,1.9431,563.0175,50.37557713,16.28173736,0.33000001,
13:54:31:153,0.0529,0.0292,1.1709,0.3809,-1.2950,1.9431,532.9800,50.37557713,16.28173736,0.33000001,
13:54:31:154,0.0563,0.0094,1.1327,0.3809,-1.2950,1.9431,532.9800,50.37557713,16.28173736,0.33000001,
13:54:31:156,0.0197,0.0005,1.0967,0.3809,-1.2950,1.9431,532.9800,50.37557713,16.28173736,0.33000001,
13:54:31:186,0.0197,0.0005,1.0967,0.3809,-1.2950,1.9431,532.9800,50.37557713,16.28173736,0.33000001,
13:54:31:204,0.0197,0.0005,1.0967,1.5980,-1.8038,1.5824,532.9800,50.37557713,16.28173736,0.33000001,
13:54:31:220,-0.0236,0.0043,1.0670,1.5980,-1.8038,1.5824,532.9800,50.37557713,16.28173736,0.33000001,
13:54:31:223,-0.0516,0.0120,1.0260,1.5980,-1.8038,1.5824,532.9800,50.37557713,16.28173736,0.33000001,
13:54:31:224,-0.0889,0.0385,0.9660,1.5980,-1.8038,1.5824,532.9800,50.37557713,16.28173736,0.33000001,
13:54:31:255,-0.0889,0.0385,0.9660,1.5980,-1.8038,1.5824,532.9800,50.37557713,16.28173736,0.33000001,
13:54:31:271,-0.0889,0.0385,0.9660,0.8486,-1.8614,0.4857,532.9800,50.37557713,16.28173736,0.33000001,
13:54:31:287,-0.1173,0.0734,0.8976,0.8486,-1.8614,0.4857,532.9800,50.37557713,16.28173736,0.33000001,
13:54:31:291,-0.1406,0.1135,0.8448,0.8486,-1.8614,0.4857,532.9800,50.37557713,16.28173736,0.33000001,
13:54:31:293,-0.1745,0.1428,0.8510,0.8486,-1.8614,0.4857,532.9800,50.37557713,16.28173736,0.33000001,
13:54:31:313,-0.1941,0.1615,0.8989,0.8486,-1.8614,0.4857,532.9800,50.37557713,16.28173736,0.33000001,
13:54:31:315,-0.1941,0.1615,0.8989,0.8486,-1.8614,0.4857,546.0075,50.37557713,16.28173736,0.33000001,
13:54:31:322,-0.1941,0.1615,0.8989,0.8486,-1.8614,0.4857,546.0075,50.37557713,16.28173736,0.33000001,
13:54:31:340,-0.1941,0.1615,0.8989,-0.1490,-0.9083,-1.0648,546.0075,50.37557713,16.28173736,0.33000001,
13:54:31:381,-0.1884,0.1737,0.9498,-0.1490,-0.9083,-1.0648,546.0075,50.37557713,16.28173736,0.33000001,
13:54:31:385,-0.1868,0.1803,0.9578,-0.1490,-0.9083,-1.0648,546.0075,50.37557713,16.28173736,0.33000001,
13:54:31:388,-0.1933,0.1911,0.9330,-0.1490,-0.9083,-1.0648,546.0075,50.37557713,16.28173736,0.33000001,
13:54:31:392,-0.1933,0.1911,0.9330,-0.1490,-0.9083,-1.0648,546.0075,50.37557713,16.28173736,0.33000001,
13:54:31:407,-0.1933,0.1911,0.9330,-0.7602,-0.1978,-0.5613,546.0075,50.37557713,16.28173736,0.33000001,
13:54:31:447,-0.1868,0.2060,0.9043,-0.7602,-0.1978,-0.5613,546.0075,50.37557713,16.28173736,0.33000001,
13:54:31:450,-0.1722,0.2154,0.8946,-0.7602,-0.1978,-0.5613,546.0075,50.37557713,16.28173736,0.33000001,
13:54:31:452,-0.1613,0.2312,0.8936,-0.7602,-0.1978,-0.5613,546.0075,50.37557713,16.28173736,0.33000001,
13:54:31:457,-0.1613,0.2312,0.8936,-0.7602,-0.1978,-0.5613,546.0075,50.37557713,16.28173736,0.33000001,
13:54:31:474,-0.1613,0.2312,0.8936,-0.7380,0.0873,-0.6097,546.0075,50.37557713,16.28173736,0.33000001,
13:54:31:514,-0.1724,0.2357,0.8969,-0.7380,0.0873,-0.6097,546.0075,50.37557713,16.28173736,0.33000001,
13:54:31:518,-0.1862,0.2443,0.8907,-0.7380,0.0873,-0.6097,546.0075,50.37557713,16.28173736,0.33000001,
13:54:31:521,-0.1925,0.2448,0.9163,-0.7380,0.0873,-0.6097,546.0075,50.37557713,16.28173736,0.33000001,
13:54:31:524,-0.1873,0.2500,0.9293,-0.7380,0.0873,-0.6097,546.0075,50.37557713,16.28173736,0.33000001,
13:54:31:526,-0.1873,0.2500,0.9293,-0.7380,0.0873,-0.6097,546.0075,50.37557713,16.28173736,0.33000001,
13:54:31:542,-0.1873,0.2500,0.9293,-0.6497,0.3201,-0.7013,546.0075,50.37557713,16.28173736,0.33000001,
13:54:31:581,-0.1915,0.2599,0.9143,-0.6497,0.3201,-0.7013,546.0075,50.37557713,16.28173736,0.33000001,
13:54:31:584,-0.1853,0.2678,0.9076,-0.6497,0.3201,-0.7013,546.0075,50.37557713,16.28173736,0.33000001,
13:54:31:587,-0.1894,0.2498,0.9480,-0.6497,0.3201,-0.7013,546.0075,50.37557713,16.28173736,0.33000001,
13:54:31:594,-0.1894,0.2498,0.9480,-0.6497,0.3201,-0.7013,546.0075,50.37557713,16.28173736,0.33000001,
13:54:31:611,-0.1894,0.2498,0.9480,-0.8200,0.4251,-0.4171,546.0075,50.37557713,16.28173736,0.33000001,
13:54:31:634,-0.1894,0.2498,0.9480,-0.8200,0.4251,-0.4171,570.9825,50.37557713,16.28173736,0.33000001,
13:54:31:636,-0.1978,0.2257,0.9942,-0.8200,0.4251,-0.4171,570.9825,50.37557713,16.28173736,0.33000001,
13:54:31:639,-0.1801,0.2121,0.9837,-0.8200,0.4251,-0.4171,570.9825,50.37557713,16.28173736,0.33000001,
13:54:31:661,-0.1801,0.2121,0.9837,-0.8200,0.4251,-0.4171,570.9825,50.37557713,16.28173736,0.33000001,
13:54:31:677,-0.1801,0.2121,0.9837,-0.8675,0.2770,-0.0131,570.9825,50.37557713,16.28173736,0.33000001,
13:54:31:700,-0.1613,0.2051,0.9791,-0.8675,0.2770,-0.0131,570.9825,50.37557713,16.28173736,0.33000001,
13:54:31:703,-0.1276,0.1924,0.9832,-0.8675,0.2770,-0.0131,570.9825,50.37557713,16.28173736,0.33000001,
13:54:31:706,-0.0676,0.1825,0.9409,-0.8675,0.2770,-0.0131,570.9825,50.37557713,16.28173736,0.33000001,
13:54:31:729,-0.0676,0.1825,0.9409,-0.8675,0.2770,-0.0131,570.9825,50.37557713,16.28173736,0.33000001,
13:54:31:746,-0.0676,0.1825,0.9409,-0.3935,0.2072,-0.0109,570.9825,50.37557713,16.28173736,0.33000001,
13:54:31:767,-0.0423,0.1684,0.9026,-0.3935,0.2072,-0.0109,570.9825,50.37557713,16.28173736,0.33000001,
13:54:31:770,-0.0304,0.1359,0.9373,-0.3935,0.2072,-0.0109,570.9825,50.37557713,16.28173736,0.33000001,
13:54:31:773,0.0093,0.0952,1.0522,-0.3935,0.2072,-0.0109,570.9825,50.37557713,16.28173736,0.33000001,
13:54:31:776,0.0156,0.0485,1.1892,-0.3935,0.2072,-0.0109,570.9825,50.37557713,16.28173736,0.33000001,
13:54:31:794,0.0156,0.0485,1.1892,-0.3935,0.2072,-0.0109,639.9675,50.37557713,16.28173736,0.33000001,
13:54:31:797,-0.0192,0.0303,1.2275,-0.3935,0.2072,-0.0109,639.9675,50.37557713,16.28173736,0.33000001,
13:54:31:800,-0.0192,0.0303,1.2275,-0.3935,0.2072,-0.0109,639.9675,50.37557713,16.28173736,0.33000001,
13:54:31:814,-0.0192,0.0303,1.2275,0.5906,-0.1047,-0.1398,639.9675,50.37557713,16.28173736,0.33000001,
13:54:31:861,-0.0026,0.0314,1.1648,0.5906,-0.1047,-0.1398,639.9675,50.37557713,16.28173736,0.33000001,
13:54:31:864,-0.0007,0.0682,1.0556,0.5906,-0.1047,-0.1398,639.9675,50.37557713,16.28173736,0.33000001,
13:54:31:865,0.0000,0.0660,0.9687,0.5906,-0.1047,-0.1398,639.9675,50.37557713,16.28173736,0.33000001,
13:54:31:867,0.0000,0.0660,0.9687,0.5906,-0.1047,-0.1398,639.9675,50.37557713,16.28173736,0.33000001,
13:54:31:882,0.0000,0.0660,0.9687,0.5632,-1.0229,1.8544,639.9675,50.37557713,16.28173736,0.33000001,
13:54:31:927,0.0646,0.0710,0.9856,0.5632,-1.0229,1.8544,639.9675,50.37557713,16.28173736,0.33000001,
13:54:31:929,0.1372,0.0889,1.0790,0.5632,-1.0229,1.8544,639.9675,50.37557713,16.28173736,0.33000001,
13:54:31:932,0.1393,0.1055,1.1604,0.5632,-1.0229,1.8544,639.9675,50.37557713,16.28173736,0.33000001,
13:54:31:934,0.1393,0.1055,1.1604,0.5632,-1.0229,1.8544,639.9675,50.37557713,16.28173736,0.33000001,
13:54:31:948,0.1393,0.1055,1.1604,0.8415,-0.4924,0.0094,639.9675,50.37557713,16.28173736,0.33000001,
13:54:31:953,0.1393,0.1055,1.1604,0.8415,-0.4924,0.0094,731.0250,50.37557713,16.28173736,0.33000001,
13:54:31:955,0.0172,0.1172,1.1635,0.8415,-0.4924,0.0094,731.0250,50.37557713,16.28173736,0.33000001,
13:54:31:976,-0.0558,0.1541,1.1152,0.8415,-0.4924,0.0094,731.0250,50.37557713,16.28173736,0.33000001,
13:54:32:000,-0.0558,0.1541,1.1152,0.8415,-0.4924,0.0094,731.0250,50.37558550,16.28172517,0.56000000,
13:54:32:017,-0.0558,0.1541,1.1152,1.0218,-0.1721,1.2531,731.0250,50.37558550,16.28172517,0.56000000,
13:54:32:020,-0.0596,0.1989,1.0810,1.0218,-0.1721,1.2531,731.0250,50.37558550,16.28172517,0.56000000,
13:54:32:023,-0.0728,0.2172,1.0303,1.0218,-0.1721,1.2531,731.0250,50.37558550,16.28172517,0.56000000,
13:54:32:027,-0.0614,0.2404,0.9835,1.0218,-0.1721,1.2531,731.0250,50.37558550,16.28172517,0.56000000,
13:54:32:067,-0.0614,0.2404,0.9835,1.0218,-0.1721,1.2531,731.0250,50.37558550,16.28172517,0.56000000,
13:54:32:085,-0.0614,0.2404,0.9835,-0.3006,0.4402,0.2796,731.0250,50.37558550,16.28172517,0.56000000,
13:54:32:089,-0.0551,0.2565,0.9669,-0.3006,0.4402,0.2796,731.0250,50.37558550,16.28172517,0.56000000,
13:54:32:092,-0.0261,0.2652,0.9416,-0.3006,0.4402,0.2796,731.0250,50.37558550,16.28172517,0.56000000,
13:54:32:095,0.0006,0.2751,0.9030,-0.3006,0.4402,0.2796,731.0250,50.37558550,16.28172517,0.56000000,
13:54:32:114,0.0006,0.2751,0.9030,-0.3006,0.4402,0.2796,771.9976,50.37558550,16.28172517,0.56000000,
13:54:32:116,0.0277,0.2768,0.8490,-0.3006,0.4402,0.2796,771.9976,50.37558550,16.28172517,0.56000000,
13:54:32:136,0.0277,0.2768,0.8490,-0.3006,0.4402,0.2796,771.9976,50.37558550,16.28172517,0.56000000,
13:54:32:153,0.0277,0.2768,0.8490,0.1495,0.7800,-0.6421,771.9976,50.37558550,16.28172517,0.56000000,
13:54:32:181,0.0111,0.2609,0.8303,0.1495,0.7800,-0.6421,771.9976,50.37558550,16.28172517,0.56000000,
13:54:32:183,-0.0241,0.2355,0.8290,0.1495,0.7800,-0.6421,771.9976,50.37558550,16.28172517,0.56000000,
13:54:32:184,-0.0377,0.2213,0.8601,0.1495,0.7800,-0.6421,771.9976,50.37558550,16.28172517,0.56000000,
13:54:32:204,-0.0377,0.2213,0.8601,0.1495,0.7800,-0.6421,771.9976,50.37558550,16.28172517,0.56000000,
13:54:32:220,-0.0377,0.2213,0.8601,0.6315,0.5585,-1.4462,771.9976,50.37558550,16.28172517,0.56000000,
13:54:32:247,-0.0607,0.2279,0.8690,0.6315,0.5585,-1.4462,771.9976,50.37558550,16.28172517,0.56000000,
13:54:32:249,-0.0899,0.2291,0.8440,0.6315,0.5585,-1.4462,771.9976,50.37558550,16.28172517,0.56000000,
13:54:32:251,-0.1358,0.2412,0.8025,0.6315,0.5585,-1.4462,771.9976,50.37558550,16.28172517,0.56000000,
13:54:32:270,-0.1358,0.2412,0.8025,0.6315,0.5585,-1.4462,771.9976,50.37558550,16.28172517,0.56000000,
13:54:32:273,-0.1358,0.2412,0.8025,0.6315,0.5585,-1.4462,825.9976,50.37558550,16.28172517,0.56000000,
13:54:32:275,-0.1577,0.2580,0.7843,0.6315,0.5585,-1.4462,825.9976,50.37558550,16.28172517,0.56000000,
13:54:32:289,-0.1577,0.2580,0.7843,0.1424,0.3064,-1.1234,825.9976,50.37558550,16.28172517,0.56000000,
13:54:32:339,-0.1577,0.2580,0.7843,0.1424,0.3064,-1.1234,825.9976,50.37558550,16.28172517,0.56000000,
13:54:32:341,-0.1903,0.2451,0.8225,0.1424,0.3064,-1.1234,825.9976,50.37558550,16.28172517,0.56000000,
13:54:32:343,-0.1685,0.2311,0.9526,0.1424,0.3064,-1.1234,825.9976,50.37558550,16.28172517,0.56000000,
13:54:32:344,-0.1119,0.2171,1.0610,0.1424,0.3064,-1.1234,825.9976,50.37558550,16.28172517,0.56000000,
13:54:32:346,-0.0919,0.2189,1.0686,0.1424,0.3064,-1.1234,825.9976,50.37558550,16.28172517,0.56000000,
13:54:32:357,-0.0919,0.2189,1.0686,-0.4473,0.5090,-1.2531,825.9976,50.37558550,16.28172517,0.56000000,
13:54:32:406,-0.0919,0.2189,1.0686,-0.4473,0.5090,-1.2531,825.9976,50.37558550,16.28172517,0.56000000,
13:54:32:407,-0.0739,0.2205,1.0107,-0.4473,0.5090,-1.2531,825.9976,50.37558550,16.28172517,0.56000000,
13:54:32:407,-0.0732,0.2237,0.9604,-0.4473,0.5090,-1.2531,825.9976,50.37558550,16.28172517,0.56000000,
13:54:32:408,-0.0482,0.1999,0.9754,-0.4473,0.5090,-1.2531,825.9976,50.37558550,16.28172517,0.56000000,
13:54:32:423,-0.0482,0.1999,0.9754,0.0745,0.3430,0.7724,825.9976,50.37558550,16.28172517,0.56000000,
13:54:32:432,-0.0482,0.1999,0.9754,0.0745,0.3430,0.7724,942.0300,50.37558550,16.28172517,0.56000000,
13:54:32:433,-0.0075,0.1325,1.1227,0.0745,0.3430,0.7724,942.0300,50.37558550,16.28172517,0.56000000,
13:54:34:255,0.1199,0.3236,0.9519,0.0745,0.3430,0.7724,942.0300,50.37558550,16.28172517,0.56000000,
13:54:34:256,0.0900,0.3269,1.1634,0.0745,0.3430,0.7724,942.0300,50.37558550,16.28172517,0.56000000,
13:54:34:283,0.0875,0.3865,1.1401,0.0745,0.3430,0.7724,942.0300,50.37558550,16.28172517,0.56000000,
13:54:34:287,-0.0210,0.3373,0.8201,0.0745,0.3430,0.7724,942.0300,50.37558550,16.28172517,0.56000000,
13:54:34:310,-0.0210,0.3373,0.8201,0.0745,0.3430,0.7724,942.0300,50.37558550,16.28172517,0.56000000,
13:54:34:311,0.0449,0.3620,0.7651,0.0745,0.3430,0.7724,942.0300,50.37558550,16.28172517,0.56000000,
13:54:34:319,0.0449,0.3620,0.7651,0.0745,0.3430,0.7724,79999.9922,50.37558550,16.28172517,0.56000000,
13:54:34:323,0.0529,0.3902,0.8627,0.0745,0.3430,0.7724,79999.9922,50.37558550,16.28172517,0.56000000,
13:54:34:344,0.0219,0.4181,0.9015,0.0745,0.3430,0.7724,79999.9922,50.37558550,16.28172517,0.56000000,
13:54:34:411,0.0219,0.4181,0.9015,0.0745,0.3430,0.7724,79999.9922,50.37558550,16.28172517,0.56000000,
13:54:34:411,0.0530,0.4452,1.0203,0.0745,0.3430,0.7724,79999.9922,50.37558550,16.28172517,0.56000000,
13:54:34:412,0.0530,0.4452,1.0203,0.0000,0.0000,0.0000,79999.9922,50.37558550,16.28172517,0.56000000,
13:54:34:412,0.0212,0.4491,0.9850,0.0000,0.0000,0.0000,79999.9922,50.37558550,16.28172517,0.56000000,
13:54:34:413,-0.0190,0.4828,0.8393,0.0000,0.0000,0.0000,79999.9922,50.37558550,16.28172517,0.56000000,
13:54:34:428,-0.0190,0.4828,0.8393,0.0000,0.0000,0.0000,79999.9922,50.37558550,16.28172517,0.56000000,
13:54:34:429,-0.0121,0.5287,0.6845,0.0000,0.0000,0.0000,79999.9922,50.37558550,16.28172517,0.56000000,
13:54:34:436,-0.0121,0.5287,0.6845,0.2440,0.0773,0.1165,79999.9922,50.37558550,16.28172517,0.56000000,
13:54:34:449,0.1275,0.6064,0.6662,0.2440,0.0773,0.1165,79999.9922,50.37558550,16.28172517,0.56000000,
13:54:34:492,0.1524,0.5917,0.6801,0.2440,0.0773,0.1165,79999.9922,50.37558550,16.28172517,0.56000000,
13:54:34:493,0.0846,0.5555,0.6840,0.2440,0.0773,0.1165,79999.9922,50.37558550,16.28172517,0.56000000,
13:54:34:496,0.0846,0.5555,0.6840,0.2440,0.0773,0.1165,79999.9922,50.37558550,16.28172517,0.56000000,
13:54:34:505,0.0846,0.5555,0.6840,-0.3217,0.1995,-0.5641,79999.9922,50.37558550,16.28172517,0.56000000,
13:54:34:513,0.4648,0.5292,1.2462,-0.3217,0.1995,-0.5641,79999.9922,50.37558550,16.28172517,0.56000000,
13:54:34:534,-0.0013,0.5417,0.6895,-0.3217,0.1995,-0.5641,79999.9922,50.37558550,16.28172517,0.56000000,
13:54:34:555,0.0128,0.5265,0.6444,-0.3217,0.1995,-0.5641,79999.9922,50.37558550,16.28172517,0.56000000,
13:54:34:564,0.0128,0.5265,0.6444,-0.3217,0.1995,-0.5641,79999.9922,50.37558550,16.28172517,0.56000000,
13:54:34:572,0.0128,0.5265,0.6444,0.9128,0.4257,-0.2552,79999.9922,50.37558550,16.28172517,0.56000000,
13:54:34:577,-0.0155,0.4671,0.6306,0.9128,0.4257,-0.2552,79999.9922,50.37558550,16.28172517,0.56000000,
13:54:34:598,0.0075,0.4092,0.6589,0.9128,0.4257,-0.2552,79999.9922,50.37558550,16.28172517,0.56000000,
13:54:34:619,0.0034,0.4240,0.6781,0.9128,0.4257,-0.2552,79999.9922,50.37558550,16.28172517,0.56000000,
13:54:34:631,0.0034,0.4240,0.6781,0.9128,0.4257,-0.2552,79999.9922,50.37558550,16.28172517,0.56000000,
13:54:34:641,-0.0654,0.4079,0.6404,0.9128,0.4257,-0.2552,79999.9922,50.37558550,16.28172517,0.56000000,
13:54:34:643,-0.0654,0.4079,0.6404,-0.9006,0.0598,-1.0160,79999.9922,50.37558550,16.28172517,0.56000000,
13:54:34:662,-0.0924,0.4597,0.6030,-0.9006,0.0598,-1.0160,79999.9922,50.37558550,16.28172517,0.56000000,
13:54:34:682,-0.0026,0.5194,0.6130,-0.9006,0.0598,-1.0160,79999.9922,50.37558550,16.28172517,0.56000000,
13:54:34:700,-0.0026,0.5194,0.6130,-0.9006,0.0598,-1.0160,79999.9922,50.37558550,16.28172517,0.56000000,
13:54:34:704,0.0450,0.5596,0.6314,-0.9006,0.0598,-1.0160,79999.9922,50.37558550,16.28172517,0.56000000,
13:54:34:708,0.0450,0.5596,0.6314,-1.2348,-0.8066,-1.2103,79999.9922,50.37558550,16.28172517,0.56000000,
13:54:34:725,-0.0026,0.5702,0.6071,-1.2348,-0.8066,-1.2103,79999.9922,50.37558550,16.28172517,0.56000000,
13:54:34:746,-0.0075,0.5917,0.6538,-1.2348,-0.8066,-1.2103,79999.9922,50.37558550,16.28172517,0.56000000,
13:54:34:767,-0.0075,0.5917,0.6538,-1.2348,-0.8066,-1.2103,79999.9922,50.37558550,16.28172517,0.56000000,
13:54:34:768,0.0352,0.6205,0.6160,-1.2348,-0.8066,-1.2103,79999.9922,50.37558550,16.28172517,0.56000000,
13:54:34:776,0.0352,0.6205,0.6160,-0.9949,0.1461,-1.4162,79999.9922,50.37558550,16.28172517,0.56000000,
13:54:34:789,0.0618,0.6382,0.7078,-0.9949,0.1461,-1.4162,79999.9922,50.37558550,16.28172517,0.56000000,
13:54:34:811,0.0625,0.6594,0.8282,-0.9949,0.1461,-1.4162,79999.9922,50.37558550,16.28172517,0.56000000,
13:54:34:831,0.0441,0.6711,0.8823,-0.9949,0.1461,-1.4162,79999.9922,50.37558550,16.28172517,0.56000000,
13:54:34:835,0.0441,0.6711,0.8823,-0.9949,0.1461,-1.4162,79999.9922,50.37558550,16.28172517,0.56000000,
13:54:34:844,0.0441,0.6711,0.8823,-0.5486,1.0006,-1.2102,79999.9922,50.37558550,16.28172517,0.56000000,
13:54:34:852,0.0081,0.7122,0.8613,-0.5486,1.0006,-1.2102,79999.9922,50.37558550,16.28172517,0.56000000,
13:54:34:873,-0.0355,0.7050,0.8593,-0.5486,1.0006,-1.2102,79999.9922,50.37558550,16.28172517,0.56000000,
13:54:34:894,-0.0207,0.7019,0.9902,-0.5486,1.0006,-1.2102,79999.9922,50.37558550,16.28172517,0.56000000,
13:54:34:903,-0.0207,0.7019,0.9902,-0.5486,1.0006,-1.2102,79999.9922,50.37558550,16.28172517,0.56000000,
13:54:34:911,-0.0207,0.7019,0.9902,0.0379,1.6249,0.6055,79999.9922,50.37558550,16.28172517,0.56000000,
13:54:34:915,-0.0114,0.6951,1.0223,0.0379,1.6249,0.6055,79999.9922,50.37558550,16.28172517,0.56000000,
13:54:34:936,-0.1165,0.6661,0.9441,0.0379,1.6249,0.6055,79999.9922,50.37558550,16.28172517,0.56000000,
13:54:34:958,-0.1308,0.6602,0.9464,0.0379,1.6249,0.6055,79999.9922,50.37558550,16.28172517,0.56000000,
13:54:34:973,-0.1308,0.6602,0.9464,0.0379,1.6249,0.6055,79999.9922,50.37558550,16.28172517,0.56000000,
13:54:34:979,-0.1308,0.6602,0.9464,-0.2941,1.9444,1.3226,79999.9922,50.37558550,16.28172517,0.56000000,
13:54:34:980,-0.1081,0.5881,0.9969,-0.2941,1.9444,1.3226,79999.9922,50.37558550,16.28172517,0.56000000,
13:54:35:000,-0.0837,0.4987,1.1512,-0.2941,1.9444,1.3226,79999.9922,50.37558550,16.28172517,0.56000000,
13:54:35:021,-0.0708,0.4144,1.2407,-0.2941,1.9444,1.3226,79999.9922,50.37558550,16.28172517,0.56000000,
13:54:35:038,-0.0708,0.4144,1.2407,-0.2941,1.9444,1.3226,79999.9922,50.37558550,16.28172517,0.56000000,
13:54:35:043,-0.0817,0.4052,1.1479,-0.2941,1.9444,1.3226,79999.9922,50.37558550,16.28172517,0.56000000,
13:54:35:047,-0.0817,0.4052,1.1479,-0.9781,1.3537,1.2583,79999.9922,50.37558550,16.28172517,0.56000000,
13:54:35:065,-0.1258,0.4588,0.9536,-0.9781,1.3537,1.2583,79999.9922,50.37558550,16.28172517,0.56000000,
13:54:35:085,-0.1527,0.5064,0.8175,-0.9781,1.3537,1.2583,79999.9922,50.37558550,16.28172517,0.56000000,
13:54:35:108,-0.1527,0.5064,0.8175,-0.9781,1.3537,1.2583,79999.9922,50.37558550,16.28172517,0.56000000,
13:54:35:111,-0.1571,0.5093,0.7756,-0.9781,1.3537,1.2583,79999.9922,50.37558550,16.28172517,0.56000000,
13:54:35:115,-0.1571,0.5093,0.7756,-0.5039,-0.4567,2.8683,79999.9922,50.37558550,16.28172517,0.56000000,
13:54:35:128,-0.1332,0.4869,0.7772,-0.5039,-0.4567,2.8683,79999.9922,50.37558550,16.28172517,0.56000000,
13:54:35:149,-0.1286,0.4693,0.8123,-0.5039,-0.4567,2.8683,79999.9922,50.37558550,16.28172517,0.56000000,
13:54:35:170,-0.0721,0.4236,0.8274,-0.5039,-0.4567,2.8683,79999.9922,50.37558550,16.28172517,0.56000000,
13:54:35:174,-0.0721,0.4236,0.8274,-0.5039,-0.4567,2.8683,79999.9922,50.37558550,16.28172517,0.56000000,
13:54:35:184,-0.0721,0.4236,0.8274,-1.0146,-0.0627,-0.3604,79999.9922,50.37558550,16.28172517,0.56000000,
13:54:35:191,-0.0582,0.4012,0.8609,-1.0146,-0.0627,-0.3604,79999.9922,50.37558550,16.28172517,0.56000000,
13:54:35:212,-0.0331,0.4027,0.8674,-1.0146,-0.0627,-0.3604,79999.9922,50.37558550,16.28172517,0.56000000,
13:54:35:233,-0.0205,0.4242,0.7782,-1.0146,-0.0627,-0.3604,79999.9922,50.37558550,16.28172517,0.56000000,
13:54:35:241,-0.0205,0.4242,0.7782,-1.0146,-0.0627,-0.3604,79999.9922,50.37558550,16.28172517,0.56000000,
13:54:35:250,-0.0205,0.4242,0.7782,-0.5571,-0.4045,-0.4575,79999.9922,50.37558550,16.28172517,0.56000000,
13:54:35:254,-0.0577,0.4325,0.6840,-0.5571,-0.4045,-0.4575,79999.9922,50.37558550,16.28172517,0.56000000,
13:54:35:276,-0.0745,0.4445,0.6586,-0.5571,-0.4045,-0.4575,79999.9922,50.37558550,16.28172517,0.56000000,
13:54:35:301,-0.0487,0.4565,0.6778,-0.5571,-0.4045,-0.4575,79999.9922,50.37558550,16.28172517,0.56000000,
13:54:35:310,-0.0487,0.4565,0.6778,-0.5571,-0.4045,-0.4575,79999.9922,50.37558550,16.28172517,0.56000000,
13:54:35:317,-0.0487,0.4565,0.6778,0.0090,-0.5959,-0.5971,79999.9922,50.37551746,16.28191755,0.60000002,
13:54:35:318,-0.0215,0.4585,0.6771,0.0090,-0.5959,-0.5971,79999.9922,50.37551746,16.28191755,0.60000002,
13:54:35:340,-0.0024,0.4634,0.6988,0.0090,-0.5959,-0.5971,79999.9922,50.37551746,16.28191755,0.60000002,
13:54:35:362,-0.0048,0.4945,0.7468,0.0090,-0.5959,-0.5971,79999.9922,50.37551746,16.28191755,0.60000002,
13:54:35:377,-0.0048,0.4945,0.7468,0.0090,-0.5959,-0.5971,79999.9922,50.37551746,16.28191755,0.60000002,
13:54:35:382,0.0119,0.4819,0.8116,0.0090,-0.5959,-0.5971,79999.9922,50.37551746,16.28191755,0.60000002,
13:54:35:386,0.0119,0.4819,0.8116,-0.0922,-0.1198,-1.6852,79999.9922,50.37551746,16.28191755,0.60000002,
13:54:35:403,0.0309,0.5027,0.7999,-0.0922,-0.1198,-1.6852,79999.9922,50.37551746,16.28191755,0.60000002,
13:54:35:426,0.0582,0.5264,0.7805,-0.0922,-0.1198,-1.6852,79999.9922,50.37551746,16.28191755,0.60000002,
13:54:35:446,0.0582,0.5264,0.7805,-0.0922,-0.1198,-1.6852,79999.9922,50.37551746,16.28191755,0.60000002,
13:54:35:447,0.0673,0.5427,0.7701,-0.0922,-0.1198,-1.6852,79999.9922,50.37551746,16.28191755,0.60000002,
13:54:35:453,0.0673,0.5427,0.7701,0.3979,0.2630,-0.8156,79999.9922,50.37551746,16.28191755,0.60000002,
13:54:35:467,0.0625,0.5549,0.7901,0.3979,0.2630,-0.8156,79999.9922,50.37551746,16.28191755,0.60000002,
13:54:35:489,0.0892,0.5576,0.8581,0.3979,0.2630,-0.8156,79999.9922,50.37551746,16.28191755,0.60000002,
13:54:35:509,0.0949,0.5420,0.9394,0.3979,0.2630,-0.8156,79999.9922,50.37551746,16.28191755,0.60000002,
13:54:35:513,0.0949,0.5420,0.9394,0.3979,0.2630,-0.8156,79999.9922,50.37551746,16.28191755,0.60000002,
13:54:35:522,0.0949,0.5420,0.9394,0.6780,0.6536,-0.5284,79999.9922,50.37551746,16.28191755,0.60000002,
13:54:35:530,0.0761,0.5395,0.9353,0.6780,0.6536,-0.5284,79999.9922,50.37551746,16.28191755,0.60000002,
13:54:35:551,0.1317,0.5124,0.9804,0.6780,0.6536,-0.5284,79999.9922,50.37551746,16.28191755,0.60000002,
13:54:35:572,0.2058,0.4652,1.0686,0.6780,0.6536,-0.5284,79999.9922,50.37551746,16.28191755,0.60000002,
13:54:35:581,0.2058,0.4652,1.0686,0.6780,0.6536,-0.5284,79999.9922,50.37551746,16.28191755,0.60000002,
13:54:35:589,0.2058,0.4652,1.0686,0.7486,0.8842,0.4091,79999.9922,50.37551746,16.28191755,0.60000002,
13:54:35:593,0.1841,0.4402,1.1523,0.7486,0.8842,0.4091,79999.9922,50.37551746,16.28191755,0.60000002,
13:54:35:614,0.1847,0.4424,1.2259,0.7486,0.8842,0.4091,79999.9922,50.37551746,16.28191755,0.60000002,
13:54:35:636,0.1857,0.4498,1.2424,0.7486,0.8842,0.4091,79999.9922,50.37551746,16.28191755,0.60000002,
13:54:35:649,0.1857,0.4498,1.2424,0.7486,0.8842,0.4091,79999.9922,50.37551746,16.28191755,0.60000002,
13:54:35:657,0.1605,0.4592,1.1383,0.7486,0.8842,0.4091,79999.9922,50.37551746,16.28191755,0.60000002,
13:54:35:658,0.1605,0.4592,1.1383,1.2385,0.3963,1.6268,79999.9922,50.37551746,16.28191755,0.60000002,
13:54:35:678,0.1713,0.4406,1.0843,1.2385,0.3963,1.6268,79999.9922,50.37551746,16.28191755,0.60000002,
13:54:35:700,0.2118,0.4452,1.0078,1.2385,0.3963,1.6268,79999.9922,50.37551746,16.28191755,0.60000002,
13:54:35:716,0.2118,0.4452,1.0078,1.2385,0.3963,1.6268,79999.9922,50.37551746,16.28191755,0.60000002,
13:54:35:720,0.2810,0.3876,1.0776,1.2385,0.3963,1.6268,79999.9922,50.37551746,16.28191755,0.60000002,
13:54:35:725,0.2810,0.3876,1.0776,1.2836,0.1491,2.7612,79999.9922,50.37551746,16.28191755,0.60000002,
13:54:35:742,0.2564,0.3578,1.0447,1.2836,0.1491,2.7612,79999.9922,50.37551746,16.28191755,0.60000002,
13:54:35:763,0.2173,0.3445,0.9972,1.2836,0.1491,2.7612,79999.9922,50.37551746,16.28191755,0.60000002,
13:54:35:786,0.2173,0.3445,0.9972,1.2836,0.1491,2.7612,79999.9922,50.37551746,16.28191755,0.60000002,
13:54:35:787,0.1506,0.3343,0.9834,1.2836,0.1491,2.7612,79999.9922,50.37551746,16.28191755,0.60000002,
13:54:35:792,0.1506,0.3343,0.9834,1.3182,-0.0800,1.2041,79999.9922,50.37551746,16.28191755,0.60000002,
13:54:35:805,0.0801,0.3197,0.9667,1.3182,-0.0800,1.2041,79999.9922,50.37551746,16.28191755,0.60000002,
13:54:35:827,0.0405,0.3259,0.8880,1.3182,-0.0800,1.2041,79999.9922,50.37551746,16.28191755,0.60000002,
13:54:35:848,0.0248,0.3611,0.7639,1.3182,-0.0800,1.2041,79999.9922,50.37551746,16.28191755,0.60000002,
13:54:35:852,0.0248,0.3611,0.7639,1.3182,-0.0800,1.2041,79999.9922,50.37551746,16.28191755,0.60000002,
13:54:35:861,0.0248,0.3611,0.7639,0.7646,-0.7743,0.5944,79999.9922,50.37551746,16.28191755,0.60000002,
13:54:35:869,-0.0037,0.3778,0.6806,0.7646,-0.7743,0.5944,79999.9922,50.37551746,16.28191755,0.60000002,
13:54:35:890,0.0021,0.3852,0.6810,0.7646,-0.7743,0.5944,79999.9922,50.37551746,16.28191755,0.60000002,
13:54:35:911,-0.0095,0.4112,0.7021,0.7646,-0.7743,0.5944,79999.9922,50.37551746,16.28191755,0.60000002,
13:54:35:920,-0.0095,0.4112,0.7021,0.7646,-0.7743,0.5944,79999.9922,50.37551746,16.28191755,0.60000002,
13:54:35:929,-0.0095,0.4112,0.7021,-0.7296,-0.7854,-0.9493,79999.9922,50.37551746,16.28191755,0.60000002,
13:54:35:932,-0.0076,0.4137,0.7009,-0.7296,-0.7854,-0.9493,79999.9922,50.37551746,16.28191755,0.60000002,
13:54:35:962,-0.0016,0.4103,0.6547,-0.7296,-0.7854,-0.9493,79999.9922,50.37551746,16.28191755,0.60000002,
13:54:35:989,-0.0016,0.4103,0.6547,-0.7296,-0.7854,-0.9493,79999.9922,50.37551746,16.28191755,0.60000002,
13:54:35:997,-0.0016,0.4103,0.6547,-0.8486,-0.2995,-1.9525,79999.9922,50.37551746,16.28191755,0.60000002,
13:54:36:002,0.0106,0.4610,0.6544,-0.8486,-0.2995,-1.9525,79999.9922,50.37551746,16.28191755,0.60000002,
13:54:36:004,0.0139,0.4490,0.6843,-0.8486,-0.2995,-1.9525,79999.9922,50.37551746,16.28191755,0.60000002,
13:54:36:056,0.0139,0.4490,0.6843,-0.8486,-0.2995,-1.9525,79999.9922,50.37551746,16.28191755,0.60000002,
13:54:36:065,0.0139,0.4490,0.6843,-0.6090,-0.0071,-1.9529,79999.9922,50.37551746,16.28191755,0.60000002,
13:54:36:069,-0.0407,0.4538,0.7514,-0.6090,-0.0071,-1.9529,79999.9922,50.37551746,16.28191755,0.60000002,
13:54:36:070,-0.0353,0.5206,0.7271,-0.6090,-0.0071,-1.9529,79999.9922,50.37551746,16.28191755,0.60000002,
13:54:36:070,-0.1011,0.4997,0.6866,-0.6090,-0.0071,-1.9529,79999.9922,50.37551746,16.28191755,0.60000002,
13:54:36:117,-0.0447,0.5437,0.7478,-0.6090,-0.0071,-1.9529,79999.9922,50.37551746,16.28191755,0.60000002,
13:54:36:118,0.0111,0.5289,0.9192,-0.6090,-0.0071,-1.9529,79999.9922,50.37551746,16.28191755,0.60000002,
13:54:36:123,0.0111,0.5289,0.9192,-0.6090,-0.0071,-1.9529,79999.9922,50.37551746,16.28191755,0.60000002,
13:54:36:128,0.0327,0.4983,0.9995,-0.6090,-0.0071,-1.9529,79999.9922,50.37551746,16.28191755,0.60000002,
13:54:36:132,0.0327,0.4983,0.9995,-0.8739,0.4400,-1.2350,79999.9922,50.37551746,16.28191755,0.60000002,
13:54:36:191,0.0327,0.4983,0.9995,-0.8739,0.4400,-1.2350,79999.9922,50.37551746,16.28191755,0.60000002,
13:54:36:195,-0.0214,0.5152,0.9170,-0.8739,0.4400,-1.2350,79999.9922,50.37551746,16.28191755,0.60000002,
13:54:36:196,-0.0993,0.5500,0.8383,-0.8739,0.4400,-1.2350,79999.9922,50.37551746,16.28191755,0.60000002,
13:54:36:197,-0.1369,0.5239,0.8735,-0.8739,0.4400,-1.2350,79999.9922,50.37551746,16.28191755,0.60000002,
13:54:36:199,-0.1369,0.5239,0.8735,0.0608,0.7939,0.4089,79999.9922,50.37551746,16.28191755,0.60000002,
13:54:36:259,-0.1369,0.5239,0.8735,0.0608,0.7939,0.4089,79999.9922,50.37551746,16.28191755,0.60000002,
13:54:36:261,-0.1475,0.4248,1.0491,0.0608,0.7939,0.4089,79999.9922,50.37551746,16.28191755,0.60000002,
13:54:36:262,-0.1257,0.2997,1.3284,0.0608,0.7939,0.4089,79999.9922,50.37551746,16.28191755,0.60000002,
13:54:36:263,-0.0506,0.2305,1.3504,0.0608,0.7939,0.4089,79999.9922,50.37551746,16.28191755,0.60000002,
13:54:36:268,-0.0506,0.2305,1.3504,-0.6861,1.0660,0.0524,79999.9922,50.37551746,16.28191755,0.60000002,
13:54:36:296,-0.0659,0.2199,1.1380,-0.6861,1.0660,0.0524,79999.9922,50.37551746,16.28191755,0.60000002,
13:54:36:297,-0.0457,0.2425,0.9881,-0.6861,1.0660,0.0524,79999.9922,50.37551746,16.28191755,0.60000002,
13:54:36:327,-0.0457,0.2425,0.9881,-0.6861,1.0660,0.0524,79999.9922,50.37551746,16.28191755,0.60000002,
13:54:36:335,-0.0457,0.2425,0.9881,-0.7020,-0.6275,3.0734,79999.9922,50.37551746,16.28191755,0.60000002,
13:54:36:363,-0.0223,0.2273,0.9321,-0.7020,-0.6275,3.0734,79999.9922,50.37551746,16.28191755,0.60000002,
13:54:36:365,0.0272,0.1442,1.0013,-0.7020,-0.6275,3.0734,79999.9922,50.37551746,16.28191755,0.60000002,
13:54:36:366,0.0148,0.1785,1.1387,-0.7020,-0.6275,3.0734,79999.9922,50.37551746,16.28191755,0.60000002,
13:54:36:394,0.0148,0.1785,1.1387,-0.7020,-0.6275,3.0734,79999.9922,50.37551746,16.28191755,0.60000002,
13:54:36:403,0.0148,0.1785,1.1387,-0.1719,-0.5118,0.0312,79999.9922,50.37551746,16.28191755,0.60000002,
13:54:36:429,0.0381,0.1376,1.2218,-0.1719,-0.5118,0.0312,79999.9922,50.37551746,16.28191755,0.60000002,
13:54:36:431,0.0275,0.0892,1.1941,-0.1719,-0.5118,0.0312,79999.9922,50.37551746,16.28191755,0.60000002,
13:54:36:432,0.0637,0.1229,1.0384,-0.1719,-0.5118,0.0312,79999.9922,50.37551746,16.28191755,0.60000002,
13:54:36:462,0.0637,0.1229,1.0384,-0.1719,-0.5118,0.0312,79999.9922,50.37551746,16.28191755,0.60000002,
13:54:36:471,0.0637,0.1229,1.0384,0.3012,-0.7204,1.6957,79999.9922,50.37551746,16.28191755,0.60000002,
13:54:36:496,0.0363,0.1515,0.8961,0.3012,-0.7204,1.6957,79999.9922,50.37551746,16.28191755,0.60000002,
13:54:36:497,0.0158,0.1947,0.8184,0.3012,-0.7204,1.6957,79999.9922,50.37551746,16.28191755,0.60000002,
13:54:36:498,0.0223,0.2176,0.8236,0.3012,-0.7204,1.6957,79999.9922,50.37551746,16.28191755,0.60000002,
13:54:36:506,0.0330,0.2279,0.8637,0.3012,-0.7204,1.6957,79999.9922,50.37551746,16.28191755,0.60000002,
13:54:36:530,0.0330,0.2279,0.8637,0.3012,-0.7204,1.6957,79999.9922,50.37551746,16.28191755,0.60000002,
13:54:36:539,0.0330,0.2279,0.8637,0.5390,-0.5255,-0.9623,79999.9922,50.37551746,16.28191755,0.60000002,
13:54:36:563,0.0389,0.2318,0.8636,0.5390,-0.5255,-0.9623,79999.9922,50.37551746,16.28191755,0.60000002,
13:54:36:564,0.0162,0.2431,0.8509,0.5390,-0.5255,-0.9623,79999.9922,50.37551746,16.28191755,0.60000002,
13:54:36:597,0.0162,0.2431,0.8509,0.5390,-0.5255,-0.9623,79999.9922,50.37551746,16.28191755,0.60000002,
13:54:36:606,0.0162,0.2431,0.8509,0.5170,0.0137,-1.1516,79999.9922,50.37551746,16.28191755,0.60000002,
13:54:36:630,0.0129,0.2545,0.8797,0.5170,0.0137,-1.1516,79999.9922,50.37551746,16.28191755,0.60000002,
13:54:36:631,0.0056,0.2487,0.8243,0.5170,0.0137,-1.1516,79999.9922,50.37551746,16.28191755,0.60000002,
13:54:36:632,-0.0001,0.2633,0.8628,0.5170,0.0137,-1.1516,79999.9922,50.37551746,16.28191755,0.60000002,
13:54:36:666,-0.0001,0.2633,0.8628,0.5170,0.0137,-1.1516,79999.9922,50.37551746,16.28191755,0.60000002,
13:54:36:674,-0.0001,0.2633,0.8628,0.2881,0.1766,-1.0335,79999.9922,50.37551746,16.28191755,0.60000002,
13:54:36:696,0.0067,0.2653,0.8750,0.2881,0.1766,-1.0335,79999.9922,50.37551746,16.28191755,0.60000002,
13:54:36:698,0.0052,0.2860,0.8809,0.2881,0.1766,-1.0335,79999.9922,50.37551746,16.28191755,0.60000002,
13:54:36:699,0.0026,0.2929,0.9135,0.2881,0.1766,-1.0335,79999.9922,50.37551746,16.28191755,0.60000002,
13:54:36:700,0.0054,0.3125,0.9609,0.2881,0.1766,-1.0335,79999.9922,50.37551746,16.28191755,0.60000002,
13:54:36:733,0.0054,0.3125,0.9609,0.2881,0.1766,-1.0335,79999.9922,50.37551746,16.28191755,0.60000002,
13:54:36:742,0.0054,0.3125,0.9609,0.3460,0.3219,-0.5940,79999.9922,50.37551746,16.28191755,0.60000002,
13:54:36:763,0.0012,0.3101,0.9853,0.3460,0.3219,-0.5940,79999.9922,50.37551746,16.28191755,0.60000002,
13:54:36:764,0.0123,0.2973,1.0718,0.3460,0.3219,-0.5940,79999.9922,50.37551746,16.28191755,0.60000002,
13:54:36:765,0.0155,0.3067,1.1433,0.3460,0.3219,-0.5940,79999.9922,50.37551746,16.28191755,0.60000002,
13:54:36:801,0.0155,0.3067,1.1433,0.3460,0.3219,-0.5940,79999.9922,50.37551746,16.28191755,0.60000002,
13:54:36:810,0.0155,0.3067,1.1433,0.1184,0.3274,0.6047,79999.9922,50.37551746,16.28191755,0.60000002,
13:54:36:829,0.0303,0.3213,1.1494,0.1184,0.3274,0.6047,79999.9922,50.37551746,16.28191755,0.60000002,
13:54:36:831,0.0706,0.3315,1.1207,0.1184,0.3274,0.6047,79999.9922,50.37551746,16.28191755,0.60000002,
13:54:36:831,0.1124,0.3250,1.0680,0.1184,0.3274,0.6047,79999.9922,50.37551746,16.28191755,0.60000002,
13:54:36:871,0.1124,0.3250,1.0680,0.1184,0.3274,0.6047,79999.9922,50.37551746,16.28191755,0.60000002,
13:54:36:877,0.1124,0.3250,1.0680,0.1819,0.0965,1.6554,79999.9922,50.37551746,16.28191755,0.60000002,
13:54:36:896,0.1722,0.2811,1.2103,0.1819,0.0965,1.6554,79999.9922,50.37551746,16.28191755,0.60000002,
13:54:36:897,0.2082,0.2628,1.2986,0.1819,0.0965,1.6554,79999.9922,50.37551746,16.28191755,0.60000002,
13:54:36:898,0.1483,0.2838,1.1765,0.1819,0.0965,1.6554,79999.9922,50.37551746,16.28191755,0.60000002,
13:54:36:937,0.1483,0.2838,1.1765,0.1819,0.0965,1.6554,79999.9922,50.37551746,16.28191755,0.60000002,
13:54:36:947,0.1483,0.2838,1.1765,0.9552,-0.5100,2.2755,79999.9922,50.37551746,16.28191755,0.60000002,
13:54:36:975,0.0970,0.3236,1.0610,0.9552,-0.5100,2.2755,79999.9922,50.37551746,16.28191755,0.60000002,
13:54:36:976,0.1215,0.3306,0.9885,0.9552,-0.5100,2.2755,79999.9922,50.37551746,16.28191755,0.60000002,
13:54:36:977,0.1806,0.3111,0.9866,0.9552,-0.5100,2.2755,79999.9922,50.37551746,16.28191755,0.60000002,
13:54:36:982,0.1571,0.2780,0.9697,0.9552,-0.5100,2.2755,79999.9922,50.37551746,16.28191755,0.60000002,
13:54:37:006,0.1571,0.2780,0.9697,0.9552,-0.5100,2.2755,79999.9922,50.37557985,16.28185722,1.09000003,
13:54:37:013,0.1571,0.2780,0.9697,0.2311,-0.3442,0.5469,79999.9922,50.37557985,16.28185722,1.09000003,
13:54:37:031,0.1113,0.2539,0.9831,0.2311,-0.3442,0.5469,79999.9922,50.37557985,16.28185722,1.09000003,
13:54:37:034,0.0801,0.2530,0.9897,0.2311,-0.3442,0.5469,79999.9922,50.37557985,16.28185722,1.09000003,
13:54:37:073,0.0801,0.2530,0.9897,0.2311,-0.3442,0.5469,79999.9922,50.37557985,16.28185722,1.09000003,
13:54:37:081,0.0801,0.2530,0.9897,0.0488,-0.7730,0.0638,79999.9922,50.37557985,16.28185722,1.09000003,
13:54:37:097,0.0656,0.2608,0.9516,0.0488,-0.7730,0.0638,79999.9922,50.37557985,16.28185722,1.09000003,
13:54:37:101,0.0543,0.2777,0.8800,0.0488,-0.7730,0.0638,79999.9922,50.37557985,16.28185722,1.09000003,
13:54:37:104,0.0073,0.2879,0.7778,0.0488,-0.7730,0.0638,79999.9922,50.37557985,16.28185722,1.09000003,
13:54:37:141,0.0073,0.2879,0.7778,0.0488,-0.7730,0.0638,79999.9922,50.37557985,16.28185722,1.09000003,
13:54:37:150,0.0073,0.2879,0.7778,-0.5496,-0.6396,-0.9773,79999.9922,50.37557985,16.28185722,1.09000003,
13:54:37:164,-0.0313,0.2904,0.7206,-0.5496,-0.6396,-0.9773,79999.9922,50.37557985,16.28185722,1.09000003,
13:54:37:168,-0.0483,0.3026,0.7035,-0.5496,-0.6396,-0.9773,79999.9922,50.37557985,16.28185722,1.09000003,
13:54:37:170,-0.0458,0.3136,0.6988,-0.5496,-0.6396,-0.9773,79999.9922,50.37557985,16.28185722,1.09000003,
13:54:37:173,-0.0260,0.3255,0.7185,-0.5496,-0.6396,-0.9773,79999.9922,50.37557985,16.28185722,1.09000003,
13:54:37:209,-0.0260,0.3255,0.7185,-0.5496,-0.6396,-0.9773,79999.9922,50.37557985,16.28185722,1.09000003,
13:54:37:217,-0.0260,0.3255,0.7185,-0.9943,-0.2944,-2.2428,79999.9922,50.37557985,16.28185722,1.09000003,
13:54:37:231,-0.0116,0.3330,0.7299,-0.9943,-0.2944,-2.2428,79999.9922,50.37557985,16.28185722,1.09000003,
13:54:37:235,0.0008,0.3361,0.7234,-0.9943,-0.2944,-2.2428,79999.9922,50.37557985,16.28185722,1.09000003,
13:54:37:238,0.0103,0.3391,0.7135,-0.9943,-0.2944,-2.2428,79999.9922,50.37557985,16.28185722,1.09000003,
13:54:37:276,0.0103,0.3391,0.7135,-0.9943,-0.2944,-2.2428,79999.9922,50.37557985,16.28185722,1.09000003,
13:54:37:288,0.0103,0.3391,0.7135,-0.5227,-0.0434,-1.8311,79999.9922,50.37557985,16.28185722,1.09000003,
13:54:37:297,-0.0026,0.3269,0.7169,-0.5227,-0.0434,-1.8311,79999.9922,50.37557985,16.28185722,1.09000003,
13:54:37:298,-0.0197,0.3156,0.7409,-0.5227,-0.0434,-1.8311,79999.9922,50.37557985,16.28185722,1.09000003,
13:54:37:300,-0.0407,0.3236,0.7644,-0.5227,-0.0434,-1.8311,79999.9922,50.37557985,16.28185722,1.09000003,
13:54:37:315,-0.0335,0.3732,0.8469,-0.5227,-0.0434,-1.8311,79999.9922,50.37557985,16.28185722,1.09000003,
13:54:37:346,-0.0335,0.3732,0.8469,-0.5227,-0.0434,-1.8311,79999.9922,50.37557985,16.28185722,1.09000003,
13:54:37:353,-0.0335,0.3732,0.8469,-0.5389,-0.1328,-1.5390,79999.9922,50.37557985,16.28185722,1.09000003,
13:54:37:354,0.0142,0.3610,0.9341,-0.5389,-0.1328,-1.5390,79999.9922,50.37557985,16.28185722,1.09000003,
13:54:37:355,0.0121,0.3192,0.9516,-0.5389,-0.1328,-1.5390,79999.9922,50.37557985,16.28185722,1.09000003,
13:54:37:384,0.0008,0.2757,0.8637,-0.5389,-0.1328,-1.5390,79999.9922,50.37557985,16.28185722,1.09000003,
13:54:37:412,0.0008,0.2757,0.8637,-0.5389,-0.1328,-1.5390,79999.9922,50.37557985,16.28185722,1.09000003,
13:54:37:421,0.0008,0.2757,0.8637,-0.6350,0.1139,0.1221,79999.9922,50.37557985,16.28185722,1.09000003,
13:54:37:449,-0.0123,0.2730,0.7913,-0.6350,0.1139,0.1221,79999.9922,50.37557985,16.28185722,1.09000003,
13:54:37:452,-0.1303,0.3125,0.8313,-0.6350,0.1139,0.1221,79999.9922,50.37557985,16.28185722,1.09000003,
13:54:37:453,-0.0197,0.1762,0.8874,-0.6350,0.1139,0.1221,79999.9922,50.37557985,16.28185722,1.09000003,
13:54:37:481,-0.0197,0.1762,0.8874,-0.6350,0.1139,0.1221,79999.9922,50.37557985,16.28185722,1.09000003,
13:54:37:488,-0.0197,0.1762,0.8874,-1.2879,-0.3329,-0.5281,79999.9922,50.37557985,16.28185722,1.09000003,
13:54:37:517,-0.0534,0.0789,0.7678,-1.2879,-0.3329,-0.5281,79999.9922,50.37557985,16.28185722,1.09000003,
13:54:37:519,0.1671,0.0649,0.9145,-1.2879,-0.3329,-0.5281,79999.9922,50.37557985,16.28185722,1.09000003,
13:54:37:520,0.2108,0.1063,1.2176,-1.2879,-0.3329,-0.5281,79999.9922,50.37557985,16.28185722,1.09000003,
13:54:37:548,0.2108,0.1063,1.2176,-1.2879,-0.3329,-0.5281,79999.9922,50.37557985,16.28185722,1.09000003,
13:54:37:556,0.2108,0.1063,1.2176,-0.6914,-1.3212,-0.0571,79999.9922,50.37557985,16.28185722,1.09000003,
13:54:37:583,0.2862,0.2256,1.1765,-0.6914,-1.3212,-0.0571,79999.9922,50.37557985,16.28185722,1.09000003,
13:54:37:585,0.1791,0.1444,1.1551,-0.6914,-1.3212,-0.0571,79999.9922,50.37557985,16.28185722,1.09000003,
13:54:37:587,0.2226,-0.0217,0.5616,-0.6914,-1.3212,-0.0571,79999.9922,50.37557985,16.28185722,1.09000003,
13:54:37:610,-0.0742,0.0889,0.7393,-0.6914,-1.3212,-0.0571,79999.9922,50.37557985,16.28185722,1.09000003,
13:54:37:611,-0.2554,0.1825,1.6372,-0.6914,-1.3212,-0.0571,79999.9922,50.37557985,16.28185722,1.09000003,
13:54:37:615,-0.2554,0.1825,1.6372,-0.6914,-1.3212,-0.0571,79999.9922,50.37557985,16.28185722,1.09000003,
13:54:37:624,-0.2554,0.1825,1.6372,2.4644,-0.8045,1.4510,79999.9922,50.37557985,16.28185722,1.09000003,
13:54:37:627,-0.2554,0.1825,1.6372,2.4644,-0.8045,1.4510,79999.9922,50.37557985,16.28185722,1.09000003,
13:54:37:628,-0.0612,0.2125,1.4054,2.4644,-0.8045,1.4510,79999.9922,50.37557985,16.28185722,1.09000003,
13:56:11:956,0.4167,0.2157,0.1006,2.4644,-0.8045,1.4510,79999.9922,50.37557985,16.28185722,1.09000003,
13:56:11:957,0.4167,0.2157,0.1006,2.4644,-0.8045,1.4510,79999.9922,50.37558054,16.28186623,0.94000000,
13:56:11:970,0.4167,0.2157,0.1006,2.4644,-0.8045,1.4510,819.9901,50.37558054,16.28186623,0.94000000,
13:56:11:973,0.2018,0.2005,0.0320,2.4644,-0.8045,1.4510,819.9901,50.37558054,16.28186623,0.94000000,
13:56:11:994,0.1508,0.1486,0.3780,2.4644,-0.8045,1.4510,819.9901,50.37558054,16.28186623,0.94000000,
13:56:12:015,-0.0435,0.0657,0.4694,2.4644,-0.8045,1.4510,819.9901,50.37558054,16.28186623,0.94000000,
13:56:12:024,-0.0435,0.0657,0.4694,2.4644,-0.8045,1.4510,819.9901,50.37558054,16.28186623,0.94000000,
13:56:12:062,-0.0643,0.0503,0.6306,2.4644,-0.8045,1.4510,819.9901,50.37558054,16.28186623,0.94000000,
13:56:12:063,-0.0643,0.0503,0.6306,0.0000,0.0000,0.0000,819.9901,50.37558054,16.28186623,0.94000000,
13:56:12:063,-0.0643,0.0503,0.6306,0.0000,0.0000,0.0000,824.9850,50.37558054,16.28186623,0.94000000,
13:56:12:063,-0.0124,0.0693,1.0199,0.0000,0.0000,0.0000,824.9850,50.37558054,16.28186623,0.94000000,
13:56:12:079,0.2157,0.0414,1.3877,0.0000,0.0000,0.0000,824.9850,50.37558054,16.28186623,0.94000000,
13:56:12:091,0.2157,0.0414,1.3877,0.0000,0.0000,0.0000,824.9850,50.37558054,16.28186623,0.94000000,
13:56:12:099,0.4787,0.0004,1.6997,0.0000,0.0000,0.0000,824.9850,50.37558054,16.28186623,0.94000000,
13:56:12:146,0.4787,0.0004,1.6997,-1.7622,-0.5336,1.6377,824.9850,50.37558054,16.28186623,0.94000000,
13:56:12:147,0.3573,0.0844,1.7701,-1.7622,-0.5336,1.6377,824.9850,50.37558054,16.28186623,0.94000000,
13:56:12:147,0.1007,0.0895,1.6366,-1.7622,-0.5336,1.6377,824.9850,50.37558054,16.28186623,0.94000000,
13:56:12:161,0.1007,0.0895,1.6366,-1.7622,-0.5336,1.6377,824.9850,50.37558054,16.28186623,0.94000000,
13:56:12:163,0.3957,0.1309,1.4922,-1.7622,-0.5336,1.6377,824.9850,50.37558054,16.28186623,0.94000000,
13:56:12:178,0.3957,0.1309,1.4922,0.4397,-0.8758,7.4073,824.9850,50.37558054,16.28186623,0.94000000,
13:56:12:184,0.6202,0.2902,1.4577,0.4397,-0.8758,7.4073,824.9850,50.37558054,16.28186623,0.94000000,
13:56:12:207,0.5103,0.3055,1.4595,0.4397,-0.8758,7.4073,824.9850,50.37558054,16.28186623,0.94000000,
13:56:12:227,0.5103,0.3055,1.4595,0.4397,-0.8758,7.4073,824.9850,50.37558054,16.28186623,0.94000000,
13:56:12:228,0.3558,0.2886,1.3584,0.4397,-0.8758,7.4073,824.9850,50.37558054,16.28186623,0.94000000,
13:56:12:244,0.3558,0.2886,1.3584,0.7354,-0.5181,6.5996,824.9850,50.37558054,16.28186623,0.94000000,
13:56:12:248,0.5532,0.2876,0.9799,0.7354,-0.5181,6.5996,824.9850,50.37558054,16.28186623,0.94000000,
13:56:12:250,0.5532,0.2876,0.9799,0.7354,-0.5181,6.5996,27089.9785,50.37558054,16.28186623,0.94000000,
13:56:12:269,0.4528,0.5220,0.9939,0.7354,-0.5181,6.5996,27089.9785,50.37558054,16.28186623,0.94000000,
13:56:12:290,0.2917,0.4465,1.0099,0.7354,-0.5181,6.5996,27089.9785,50.37558054,16.28186623,0.94000000,
13:56:12:294,0.2917,0.4465,1.0099,0.7354,-0.5181,6.5996,27089.9785,50.37558054,16.28186623,0.94000000,
13:56:12:313,0.2917,0.4465,1.0099,2.0710,0.0972,3.2931,27089.9785,50.37558054,16.28186623,0.94000000,
13:56:12:316,0.1603,0.4424,0.8056,2.0710,0.0972,3.2931,27089.9785,50.37558054,16.28186623,0.94000000,
13:56:12:334,0.0673,0.5052,0.6091,2.0710,0.0972,3.2931,27089.9785,50.37558054,16.28186623,0.94000000,
13:56:12:355,0.0926,0.4765,0.4687,2.0710,0.0972,3.2931,27089.9785,50.37558054,16.28186623,0.94000000,
13:56:12:362,0.0926,0.4765,0.4687,2.0710,0.0972,3.2931,27089.9785,50.37558054,16.28186623,0.94000000,
13:56:12:376,0.2487,0.3874,0.4786,2.0710,0.0972,3.2931,27089.9785,50.37558054,16.28186623,0.94000000,
13:56:12:379,0.2487,0.3874,0.4786,1.2435,1.1307,-0.4239,27089.9785,50.37558054,16.28186623,0.94000000,
13:56:12:397,0.3361,0.2992,0.5642,1.2435,1.1307,-0.4239,27089.9785,50.37558054,16.28186623,0.94000000,
13:56:12:410,0.3361,0.2992,0.5642,1.2435,1.1307,-0.4239,17869.0059,50.37558054,16.28186623,0.94000000,
13:56:12:418,0.1955,0.3729,0.6534,1.2435,1.1307,-0.4239,17869.0059,50.37558054,16.28186623,0.94000000,
13:56:12:431,0.1955,0.3729,0.6534,1.2435,1.1307,-0.4239,17869.0059,50.37558054,16.28186623,0.94000000,
13:56:12:439,-0.0216,0.4740,0.6143,1.2435,1.1307,-0.4239,17869.0059,50.37558054,16.28186623,0.94000000,
13:56:12:447,-0.0216,0.4740,0.6143,0.2801,0.9390,-3.9927,17869.0059,50.37558054,16.28186623,0.94000000,
13:56:12:460,-0.0467,0.4440,0.5826,0.2801,0.9390,-3.9927,17869.0059,50.37558054,16.28186623,0.94000000,
13:56:12:481,-0.0916,0.4494,0.5289,0.2801,0.9390,-3.9927,17869.0059,50.37558054,16.28186623,0.94000000,
13:56:12:498,-0.0916,0.4494,0.5289,0.2801,0.9390,-3.9927,17869.0059,50.37558054,16.28186623,0.94000000,
13:56:12:502,-0.1672,0.4800,0.4733,0.2801,0.9390,-3.9927,17869.0059,50.37558054,16.28186623,0.94000000,
13:56:12:516,-0.1672,0.4800,0.4733,0.4057,-0.0313,-2.5297,17869.0059,50.37558054,16.28186623,0.94000000,
13:56:12:523,-0.2083,0.4863,0.4805,0.4057,-0.0313,-2.5297,17869.0059,50.37558054,16.28186623,0.94000000,
13:56:12:545,-0.2370,0.5014,0.5442,0.4057,-0.0313,-2.5297,17869.0059,50.37558054,16.28186623,0.94000000,
13:56:12:567,-0.2370,0.5014,0.5442,0.4057,-0.0313,-2.5297,17869.0059,50.37558054,16.28186623,0.94000000,
13:56:12:568,-0.2288,0.5190,0.6029,0.4057,-0.0313,-2.5297,17869.0059,50.37558054,16.28186623,0.94000000,
13:56:12:570,-0.2288,0.5190,0.6029,0.4057,-0.0313,-2.5297,12582.0010,50.37558054,16.28186623,0.94000000,
13:56:12:582,-0.2288,0.5190,0.6029,-1.7271,0.3492,-3.0871,12582.0010,50.37558054,16.28186623,0.94000000,
13:56:12:587,-0.1862,0.5468,0.6775,-1.7271,0.3492,-3.0871,12582.0010,50.37558054,16.28186623,0.94000000,
13:56:12:608,-0.1762,0.5575,0.7139,-1.7271,0.3492,-3.0871,12582.0010,50.37558054,16.28186623,0.94000000,
13:56:12:634,-0.1762,0.5575,0.7139,-1.7271,0.3492,-3.0871,12582.0010,50.37558054,16.28186623,0.94000000,
13:56:12:641,-0.2027,0.5573,0.7471,-1.7271,0.3492,-3.0871,12582.0010,50.37558054,16.28186623,0.94000000,
13:56:12:650,-0.2027,0.5573,0.7471,-2.2245,0.7392,-2.0527,12582.0010,50.37558054,16.28186623,0.94000000,
13:56:12:651,-0.1861,0.5646,0.8636,-2.2245,0.7392,-2.0527,12582.0010,50.37558054,16.28186623,0.94000000,
13:56:12:672,-0.1812,0.5527,1.0378,-2.2245,0.7392,-2.0527,12582.0010,50.37558054,16.28186623,0.94000000,
13:56:12:693,-0.2287,0.5268,1.1708,-2.2245,0.7392,-2.0527,12582.0010,50.37558054,16.28186623,0.94000000,
13:56:12:701,-0.2287,0.5268,1.1708,-2.2245,0.7392,-2.0527,12582.0010,50.37558054,16.28186623,0.94000000,
13:56:12:714,-0.2926,0.5189,1.1832,-2.2245,0.7392,-2.0527,12582.0010,50.37558054,16.28186623,0.94000000,
13:56:12:718,-0.2926,0.5189,1.1832,-1.4158,1.2035,-0.3158,12582.0010,50.37558054,16.28186623,0.94000000,
13:56:12:730,-0.2926,0.5189,1.1832,-1.4158,1.2035,-0.3158,13725.9902,50.37558054,16.28186623,0.94000000,
13:56:12:736,-0.3197,0.5049,1.1592,-1.4158,1.2035,-0.3158,13725.9902,50.37558054,16.28186623,0.94000000,
13:56:12:758,-0.2204,0.4444,1.1681,-1.4158,1.2035,-0.3158,13725.9902,50.37558054,16.28186623,0.94000000,
13:56:12:769,-0.2204,0.4444,1.1681,-1.4158,1.2035,-0.3158,13725.9902,50.37558054,16.28186623,0.94000000,
13:56:12:778,-0.1544,0.3918,1.2219,-1.4158,1.2035,-0.3158,13725.9902,50.37558054,16.28186623,0.94000000,
13:56:12:787,-0.1544,0.3918,1.2219,-1.8529,0.9434,2.8059,13725.9902,50.37558054,16.28186623,0.94000000,
13:56:12:801,-0.1089,0.3684,1.3421,-1.8529,0.9434,2.8059,13725.9902,50.37558054,16.28186623,0.94000000,
13:56:12:822,-0.0176,0.3244,1.3651,-1.8529,0.9434,2.8059,13725.9902,50.37558054,16.28186623,0.94000000,
13:56:12:838,-0.0176,0.3244,1.3651,-1.8529,0.9434,2.8059,13725.9902,50.37558054,16.28186623,0.94000000,
13:56:12:842,0.0348,0.3568,1.3029,-1.8529,0.9434,2.8059,13725.9902,50.37558054,16.28186623,0.94000000,
13:56:12:854,0.0348,0.3568,1.3029,-1.6437,0.0641,3.0410,13725.9902,50.37558054,16.28186623,0.94000000,
13:56:12:863,0.0715,0.4256,1.1780,-1.6437,0.0641,3.0410,13725.9902,50.37558054,16.28186623,0.94000000,
13:56:12:884,0.1115,0.4815,1.0481,-1.6437,0.0641,3.0410,13725.9902,50.37558054,16.28186623,0.94000000,
13:56:12:891,0.1115,0.4815,1.0481,-1.6437,0.0641,3.0410,32684.9863,50.37558054,16.28186623,0.94000000,
13:56:12:905,0.1115,0.4815,1.0481,-1.6437,0.0641,3.0410,32684.9863,50.37558054,16.28186623,0.94000000,
13:56:12:908,0.0947,0.4811,0.9659,-1.6437,0.0641,3.0410,32684.9863,50.37558054,16.28186623,0.94000000,
13:56:12:922,0.0947,0.4811,0.9659,0.2359,-0.6216,3.6953,32684.9863,50.37558054,16.28186623,0.94000000,
13:56:12:927,0.0511,0.4700,0.9262,0.2359,-0.6216,3.6953,32684.9863,50.37558054,16.28186623,0.94000000,
13:56:12:947,0.0212,0.4607,0.9048,0.2359,-0.6216,3.6953,32684.9863,50.37558054,16.28186623,0.94000000,
13:56:12:969,0.0156,0.4550,0.8746,0.2359,-0.6216,3.6953,32684.9863,50.37558054,16.28186623,0.94000000,
13:56:12:975,0.0156,0.4550,0.8746,0.2359,-0.6216,3.6953,32684.9863,50.37558054,16.28186623,0.94000000,
13:56:12:991,0.0156,0.4550,0.8746,1.0749,0.6528,0.4866,32684.9863,50.37558054,16.28186623,0.94000000,
13:56:12:993,0.0119,0.4545,0.8176,1.0749,0.6528,0.4866,32684.9863,50.37558054,16.28186623,0.94000000,
13:56:13:012,-0.0112,0.4466,0.7661,1.0749,0.6528,0.4866,32684.9863,50.37558054,16.28186623,0.94000000,
13:56:13:033,-0.0468,0.4178,0.7263,1.0749,0.6528,0.4866,32684.9863,50.37558054,16.28186623,0.94000000,
13:56:13:041,-0.0468,0.4178,0.7263,1.0749,0.6528,0.4866,32684.9863,50.37558054,16.28186623,0.94000000,
13:56:13:051,-0.0468,0.4178,0.7263,1.0749,0.6528,0.4866,39540.0156,50.37558054,16.28186623,0.94000000,
13:56:13:055,-0.0827,0.3952,0.7351,1.0749,0.6528,0.4866,39540.0156,50.37558054,16.28186623,0.94000000,
13:56:13:059,-0.0827,0.3952,0.7351,0.6060,0.6834,-0.8276,39540.0156,50.37558054,16.28186623,0.94000000,
13:56:13:077,-0.1025,0.3485,0.7774,0.6060,0.6834,-0.8276,39540.0156,50.37558054,16.28186623,0.94000000,
13:56:13:097,-0.1259,0.3216,0.8025,0.6060,0.6834,-0.8276,39540.0156,50.37558054,16.28186623,0.94000000,
13:56:13:109,-0.1259,0.3216,0.8025,0.6060,0.6834,-0.8276,39540.0156,50.37558054,16.28186623,0.94000000,
13:56:13:118,-0.1273,0.3083,0.7879,0.6060,0.6834,-0.8276,39540.0156,50.37558054,16.28186623,0.94000000,
13:56:13:128,-0.1273,0.3083,0.7879,0.1988,0.3361,-1.8439,39540.0156,50.37558054,16.28186623,0.94000000,
13:56:13:139,-0.1356,0.3004,0.7639,0.1988,0.3361,-1.8439,39540.0156,50.37558054,16.28186623,0.94000000,
13:56:13:163,-0.1657,0.2981,0.7597,0.1988,0.3361,-1.8439,39540.0156,50.37558054,16.28186623,0.94000000,
13:56:13:176,-0.1657,0.2981,0.7597,0.1988,0.3361,-1.8439,39540.0156,50.37558054,16.28186623,0.94000000,
13:56:13:181,-0.1969,0.3005,0.7561,0.1988,0.3361,-1.8439,39540.0156,50.37558054,16.28186623,0.94000000,
13:56:13:194,-0.1969,0.3005,0.7561,-0.2509,-0.7220,-1.1568,39540.0156,50.37558054,16.28186623,0.94000000,
13:56:13:202,-0.2046,0.3016,0.7666,-0.2509,-0.7220,-1.1568,39540.0156,50.37558054,16.28186623,0.94000000,
13:56:13:212,-0.2046,0.3016,0.7666,-0.2509,-0.7220,-1.1568,1381.9950,50.37558054,16.28186623,0.94000000,
13:56:13:223,-0.1964,0.3163,0.7832,-0.2509,-0.7220,-1.1568,1381.9950,50.37558054,16.28186623,0.94000000,
13:56:13:245,-0.1852,0.3187,0.7970,-0.2509,-0.7220,-1.1568,1381.9950,50.37558054,16.28186623,0.94000000,
13:56:13:247,-0.1852,0.3187,0.7970,-0.2509,-0.7220,-1.1568,1381.9950,50.37558054,16.28186623,0.94000000,
13:56:13:261,-0.1852,0.3187,0.7970,-0.6400,-1.0047,-1.1905,1381.9950,50.37558054,16.28186623,0.94000000,
13:56:13:266,-0.1789,0.3301,0.8220,-0.6400,-1.0047,-1.1905,1381.9950,50.37558054,16.28186623,0.94000000,
13:56:13:288,-0.1920,0.3448,0.8757,-0.6400,-1.0047,-1.1905,1381.9950,50.37558054,16.28186623,0.94000000,
13:56:13:309,-0.2161,0.3588,0.9099,-0.6400,-1.0047,-1.1905,1381.9950,50.37558054,16.28186623,0.94000000,
13:56:13:314,-0.2161,0.3588,0.9099,-0.6400,-1.0047,-1.1905,1381.9950,50.37558054,16.28186623,0.94000000,
13:56:13:329,-0.2161,0.3588,0.9099,-0.7520,-0.8600,-0.7008,1381.9950,50.37558054,16.28186623,0.94000000,
13:56:13:333,-0.2461,0.3855,0.9397,-0.7520,-0.8600,-0.7008,1381.9950,50.37558054,16.28186623,0.94000000,
13:56:13:351,-0.2048,0.3836,0.9592,-0.7520,-0.8600,-0.7008,1381.9950,50.37558054,16.28186623,0.94000000,
13:56:13:371,-0.2048,0.3836,0.9592,-0.7520,-0.8600,-0.7008,35328.0156,50.37558054,16.28186623,0.94000000,
13:56:13:373,-0.1413,0.4424,0.9599,-0.7520,-0.8600,-0.7008,35328.0156,50.37558054,16.28186623,0.94000000,
13:56:13:380,-0.1413,0.4424,0.9599,-0.7520,-0.8600,-0.7008,35328.0156,50.37558054,16.28186623,0.94000000,
13:56:13:394,-0.0507,0.4473,0.8971,-0.7520,-0.8600,-0.7008,35328.0156,50.37558054,16.28186623,0.94000000,
13:56:13:398,-0.0507,0.4473,0.8971,-1.2027,-0.5564,0.3788,35328.0156,50.37558054,16.28186623,0.94000000,
13:56:13:414,-0.0374,0.4659,0.8441,-1.2027,-0.5564,0.3788,35328.0156,50.37558054,16.28186623,0.94000000,
13:56:13:436,-0.0780,0.4532,0.8051,-1.2027,-0.5564,0.3788,35328.0156,50.37558054,16.28186623,0.94000000,
13:56:13:448,-0.0780,0.4532,0.8051,-1.2027,-0.5564,0.3788,35328.0156,50.37558054,16.28186623,0.94000000,
13:56:13:457,-0.1455,0.4069,0.8632,-1.2027,-0.5564,0.3788,35328.0156,50.37558054,16.28186623,0.94000000,
13:56:13:465,-0.1455,0.4069,0.8632,-0.3781,0.1947,0.5281,35328.0156,50.37558054,16.28186623,0.94000000,
13:56:13:478,-0.1706,0.3490,1.0439,-0.3781,0.1947,0.5281,35328.0156,50.37558054,16.28186623,0.94000000,
13:56:13:499,-0.1373,0.3136,1.1765,-0.3781,0.1947,0.5281,35328.0156,50.37558054,16.28186623,0.94000000,
13:56:13:517,-0.1373,0.3136,1.1765,-0.3781,0.1947,0.5281,35328.0156,50.37558054,16.28186623,0.94000000,
13:56:13:520,-0.1245,0.3108,1.1840,-0.3781,0.1947,0.5281,35328.0156,50.37558054,16.28186623,0.94000000,
13:56:13:531,-0.1245,0.3108,1.1840,-0.3781,0.1947,0.5281,1097.0100,50.37558054,16.28186623,0.94000000,
13:56:13:533,-0.1245,0.3108,1.1840,-0.2769,0.5827,-0.3969,1097.0100,50.37558054,16.28186623,0.94000000,
13:56:13:542,-0.1110,0.3197,1.1216,-0.2769,0.5827,-0.3969,1097.0100,50.37558054,16.28186623,0.94000000,
13:56:13:563,-0.1264,0.3479,1.0373,-0.2769,0.5827,-0.3969,1097.0100,50.37558054,16.28186623,0.94000000,
13:56:13:584,-0.1264,0.3479,1.0373,-0.2769,0.5827,-0.3969,1097.0100,50.37558054,16.28186623,0.94000000,
13:56:13:587,-0.1293,0.3685,0.9563,-0.2769,0.5827,-0.3969,1097.0100,50.37558054,16.28186623,0.94000000,
13:56:13:601,-0.1293,0.3685,0.9563,-0.4917,-0.5053,2.2757,1097.0100,50.37558054,16.28186623,0.94000000,
13:56:13:605,-0.1339,0.3937,0.8640,-0.4917,-0.5053,2.2757,1097.0100,50.37558054,16.28186623,0.94000000,
13:56:13:628,-0.1486,0.4203,0.7902,-0.4917,-0.5053,2.2757,1097.0100,50.37558054,16.28186623,0.94000000,
13:56:13:648,-0.1648,0.4349,0.7345,-0.4917,-0.5053,2.2757,1097.0100,50.37558054,16.28186623,0.94000000,
13:56:13:652,-0.1648,0.4349,0.7345,-0.4917,-0.5053,2.2757,1097.0100,50.37558054,16.28186623,0.94000000,
13:56:13:668,-0.1648,0.4349,0.7345,-0.2589,-0.2524,0.5867,1097.0100,50.37558054,16.28186623,0.94000000,
13:56:13:670,-0.1881,0.4429,0.6824,-0.2589,-0.2524,0.5867,1097.0100,50.37558054,16.28186623,0.94000000,
13:56:13:690,-0.2212,0.4407,0.6563,-0.2589,-0.2524,0.5867,1097.0100,50.37558054,16.28186623,0.94000000,
13:56:13:695,-0.2212,0.4407,0.6563,-0.2589,-0.2524,0.5867,32460.0098,50.37558054,16.28186623,0.94000000,
13:56:13:711,-0.2489,0.4264,0.6511,-0.2589,-0.2524,0.5867,32460.0098,50.37558054,16.28186623,0.94000000,
13:56:13:719,-0.2489,0.4264,0.6511,-0.2589,-0.2524,0.5867,32460.0098,50.37558054,16.28186623,0.94000000,
13:56:13:732,-0.2718,0.4402,0.6575,-0.2589,-0.2524,0.5867,32460.0098,50.37558054,16.28186623,0.94000000,
13:56:13:736,-0.2718,0.4402,0.6575,-0.4125,0.2191,-1.4619,32460.0098,50.37558054,16.28186623,0.94000000,
13:56:13:754,-0.2567,0.4552,0.6671,-0.4125,0.2191,-1.4619,32460.0098,50.37558054,16.28186623,0.94000000,
13:56:13:775,-0.2318,0.4496,0.6700,-0.4125,0.2191,-1.4619,32460.0098,50.37558054,16.28186623,0.94000000,
13:56:13:788,-0.2318,0.4496,0.6700,-0.4125,0.2191,-1.4619,32460.0098,50.37558054,16.28186623,0.94000000,
13:56:13:797,-0.2269,0.4513,0.6672,-0.4125,0.2191,-1.4619,32460.0098,50.37558054,16.28186623,0.94000000,
13:56:13:804,-0.2269,0.4513,0.6672,-0.9878,0.1561,-1.9894,32460.0098,50.37558054,16.28186623,0.94000000,
13:56:13:817,-0.2342,0.4556,0.6589,-0.9878,0.1561,-1.9894,32460.0098,50.37558054,16.28186623,0.94000000,
13:56:13:838,-0.2398,0.4441,0.6531,-0.9878,0.1561,-1.9894,32460.0098,50.37558054,16.28186623,0.94000000,
13:56:13:851,-0.2398,0.4441,0.6531,-0.9878,0.1561,-1.9894,27903.0156,50.37558054,16.28186623,0.94000000,
13:56:13:855,-0.2398,0.4441,0.6531,-0.9878,0.1561,-1.9894,27903.0156,50.37558054,16.28186623,0.94000000,
13:56:13:862,-0.2668,0.4509,0.6422,-0.9878,0.1561,-1.9894,27903.0156,50.37558054,16.28186623,0.94000000,
13:56:13:872,-0.2668,0.4509,0.6422,-0.6305,0.1925,-1.5993,27903.0156,50.37558054,16.28186623,0.94000000,
13:56:13:879,-0.2870,0.4557,0.6285,-0.6305,0.1925,-1.5993,27903.0156,50.37558054,16.28186623,0.94000000,
13:56:13:902,-0.3084,0.4828,0.6144,-0.6305,0.1925,-1.5993,27903.0156,50.37558054,16.28186623,0.94000000,
13:56:13:923,-0.3084,0.4828,0.6144,-0.6305,0.1925,-1.5993,27903.0156,50.37558054,16.28186623,0.94000000,
13:56:13:927,-0.3356,0.5209,0.6237,-0.6305,0.1925,-1.5993,27903.0156,50.37558054,16.28186623,0.94000000,
13:56:13:940,-0.3356,0.5209,0.6237,-0.6323,-0.0009,-1.4980,27903.0156,50.37558054,16.28186623,0.94000000,
13:56:13:943,-0.3412,0.5513,0.6564,-0.6323,-0.0009,-1.4980,27903.0156,50.37558054,16.28186623,0.94000000,
13:56:13:966,-0.3420,0.5839,0.7026,-0.6323,-0.0009,-1.4980,27903.0156,50.37558054,16.28186623,0.94000000,
13:56:13:988,-0.3400,0.6203,0.7500,-0.6323,-0.0009,-1.4980,27903.0156,50.37558054,16.28186623,0.94000000,
13:56:13:990,-0.3400,0.6203,0.7500,-0.6323,-0.0009,-1.4980,27903.0156,50.37560388,16.28166902,0.44000000,
13:56:14:007,-0.3400,0.6203,0.7500,-1.1149,0.2879,-1.3630,27903.0156,50.37560388,16.28166902,0.44000000,
13:56:14:008,-0.3371,0.6485,0.7914,-1.1149,0.2879,-1.3630,27903.0156,50.37560388,16.28166902,0.44000000,
13:56:14:010,-0.3371,0.6485,0.7914,-1.1149,0.2879,-1.3630,13015.0127,50.37560388,16.28166902,0.44000000,
13:56:14:029,-0.3625,0.6892,0.7987,-1.1149,0.2879,-1.3630,13015.0127,50.37560388,16.28166902,0.44000000,
13:56:14:049,-0.3941,0.7191,0.8103,-1.1149,0.2879,-1.3630,13015.0127,50.37560388,16.28166902,0.44000000,
13:56:14:059,-0.3941,0.7191,0.8103,-1.1149,0.2879,-1.3630,13015.0127,50.37560388,16.28166902,0.44000000,
13:56:14:070,-0.3869,0.7426,0.8168,-1.1149,0.2879,-1.3630,13015.0127,50.37560388,16.28166902,0.44000000,
13:56:14:075,-0.3869,0.7426,0.8168,-1.1359,0.9349,-0.0456,13015.0127,50.37560388,16.28166902,0.44000000,
13:56:14:092,-0.3639,0.7670,0.8278,-1.1359,0.9349,-0.0456,13015.0127,50.37560388,16.28166902,0.44000000,
13:56:14:114,-0.3355,0.7888,0.8046,-1.1359,0.9349,-0.0456,13015.0127,50.37560388,16.28166902,0.44000000,
13:56:14:127,-0.3355,0.7888,0.8046,-1.1359,0.9349,-0.0456,13015.0127,50.37560388,16.28166902,0.44000000,
13:56:14:134,-0.3200,0.7970,0.7946,-1.1359,0.9349,-0.0456,13015.0127,50.37560388,16.28166902,0.44000000,
13:56:14:143,-0.3200,0.7970,0.7946,-1.3373,1.8054,0.5073,13015.0127,50.37560388,16.28166902,0.44000000,
13:56:14:156,-0.2583,0.7432,0.8489,-1.3373,1.8054,0.5073,13015.0127,50.37560388,16.28166902,0.44000000,
13:56:14:171,-0.2583,0.7432,0.8489,-1.3373,1.8054,0.5073,8394.0303,50.37560388,16.28166902,0.44000000,
13:56:14:178,-0.1947,0.6560,0.9801,-1.3373,1.8054,0.5073,8394.0303,50.37560388,16.28166902,0.44000000,
13:56:14:195,-0.1947,0.6560,0.9801,-1.3373,1.8054,0.5073,8394.0303,50.37560388,16.28166902,0.44000000,
13:56:14:199,-0.1807,0.5533,1.2065,-1.3373,1.8054,0.5073,8394.0303,50.37560388,16.28166902,0.44000000,
13:56:14:211,-0.1807,0.5533,1.2065,-0.8500,2.9641,-0.0734,8394.0303,50.37560388,16.28166902,0.44000000,
13:56:14:219,-0.1974,0.4405,1.4487,-0.8500,2.9641,-0.0734,8394.0303,50.37560388,16.28166902,0.44000000,
13:56:14:241,-0.1972,0.3670,1.5496,-0.8500,2.9641,-0.0734,8394.0303,50.37560388,16.28166902,0.44000000,
13:56:14:262,-0.1972,0.3670,1.5496,-0.8500,2.9641,-0.0734,8394.0303,50.37560388,16.28166902,0.44000000,
13:56:14:263,-0.1455,0.3598,1.4848,-0.8500,2.9641,-0.0734,8394.0303,50.37560388,16.28166902,0.44000000,
13:56:14:279,-0.1455,0.3598,1.4848,0.2295,1.6242,2.1909,8394.0303,50.37560388,16.28166902,0.44000000,
13:56:14:283,-0.0819,0.3844,1.3349,0.2295,1.6242,2.1909,8394.0303,50.37560388,16.28166902,0.44000000,
13:56:14:304,-0.0629,0.3545,1.2238,0.2295,1.6242,2.1909,8394.0303,50.37560388,16.28166902,0.44000000,
13:56:14:325,-0.0928,0.3138,1.1772,0.2295,1.6242,2.1909,8394.0303,50.37560388,16.28166902,0.44000000,
13:56:14:331,-0.0928,0.3138,1.1772,0.2295,1.6242,2.1909,8394.0303,50.37560388,16.28166902,0.44000000,
13:56:14:332,-0.0928,0.3138,1.1772,0.2295,1.6242,2.1909,1923.0076,50.37560388,16.28166902,0.44000000,
13:56:14:348,-0.0928,0.3138,1.1772,0.3997,-0.3992,5.0115,1923.0076,50.37560388,16.28166902,0.44000000,
13:56:14:351,-0.1183,0.2912,1.1487,0.3997,-0.3992,5.0115,1923.0076,50.37560388,16.28166902,0.44000000,
13:56:14:368,-0.1123,0.2650,1.0867,0.3997,-0.3992,5.0115,1923.0076,50.37560388,16.28166902,0.44000000,
13:56:14:390,-0.1104,0.2680,1.0107,0.3997,-0.3992,5.0115,1923.0076,50.37560388,16.28166902,0.44000000,
13:56:14:398,-0.1104,0.2680,1.0107,0.3997,-0.3992,5.0115,1923.0076,50.37560388,16.28166902,0.44000000,
13:56:14:410,-0.0949,0.2766,0.9604,0.3997,-0.3992,5.0115,1923.0076,50.37560388,16.28166902,0.44000000,
13:56:14:415,-0.0949,0.2766,0.9604,0.7216,-0.8827,1.9761,1923.0076,50.37560388,16.28166902,0.44000000,
13:56:14:432,-0.0577,0.2751,0.9456,0.7216,-0.8827,1.9761,1923.0076,50.37560388,16.28166902,0.44000000,
13:56:14:453,-0.0446,0.2802,0.9026,0.7216,-0.8827,1.9761,1923.0076,50.37560388,16.28166902,0.44000000,
13:56:14:465,-0.0446,0.2802,0.9026,0.7216,-0.8827,1.9761,1923.0076,50.37560388,16.28166902,0.44000000,
13:56:14:477,-0.0509,0.2831,0.8181,0.7216,-0.8827,1.9761,1923.0076,50.37560388,16.28166902,0.44000000,
13:56:14:482,-0.0509,0.2831,0.8181,0.4374,-1.4697,0.3221,1923.0076,50.37560388,16.28166902,0.44000000,
13:56:14:492,-0.0509,0.2831,0.8181,0.4374,-1.4697,0.3221,4019.0176,50.37560388,16.28166902,0.44000000,
13:56:14:495,-0.0582,0.2834,0.7358,0.4374,-1.4697,0.3221,4019.0176,50.37560388,16.28166902,0.44000000,
13:56:14:516,-0.0760,0.2974,0.6669,0.4374,-1.4697,0.3221,4019.0176,50.37560388,16.28166902,0.44000000,
13:56:14:533,-0.0760,0.2974,0.6669,0.4374,-1.4697,0.3221,4019.0176,50.37560388,16.28166902,0.44000000,
13:56:14:537,-0.0852,0.3116,0.6159,0.4374,-1.4697,0.3221,4019.0176,50.37560388,16.28166902,0.44000000,
13:56:14:551,-0.0852,0.3116,0.6159,0.8521,-1.4319,-0.9018,4019.0176,50.37560388,16.28166902,0.44000000,
13:56:14:559,-0.0902,0.3244,0.5881,0.8521,-1.4319,-0.9018,4019.0176,50.37560388,16.28166902,0.44000000,
13:56:14:579,-0.0905,0.3460,0.5795,0.8521,-1.4319,-0.9018,4019.0176,50.37560388,16.28166902,0.44000000,
13:56:14:601,-0.0905,0.3460,0.5795,0.8521,-1.4319,-0.9018,4019.0176,50.37560388,16.28166902,0.44000000,
13:56:14:604,-0.0902,0.3754,0.5915,0.8521,-1.4319,-0.9018,4019.0176,50.37560388,16.28166902,0.44000000,
13:56:14:618,-0.0902,0.3754,0.5915,0.5730,-1.0055,-2.7476,4019.0176,50.37560388,16.28166902,0.44000000,
13:56:14:622,-0.0816,0.3952,0.6370,0.5730,-1.0055,-2.7476,4019.0176,50.37560388,16.28166902,0.44000000,
13:56:14:643,-0.0709,0.3896,0.7068,0.5730,-1.0055,-2.7476,4019.0176,50.37560388,16.28166902,0.44000000,
13:56:14:652,-0.0709,0.3896,0.7068,0.5730,-1.0055,-2.7476,3568.9951,50.37560388,16.28166902,0.44000000,
13:56:14:665,-0.0704,0.3724,0.7858,0.5730,-1.0055,-2.7476,3568.9951,50.37560388,16.28166902,0.44000000,
13:56:14:669,-0.0704,0.3724,0.7858,0.5730,-1.0055,-2.7476,3568.9951,50.37560388,16.28166902,0.44000000,
13:56:14:685,-0.0847,0.3529,0.8590,0.5730,-1.0055,-2.7476,3568.9951,50.37560388,16.28166902,0.44000000,
13:56:14:688,-0.0847,0.3529,0.8590,0.4020,-0.1271,-2.9789,3568.9951,50.37560388,16.28166902,0.44000000,
13:56:14:708,-0.1256,0.3512,0.9300,0.4020,-0.1271,-2.9789,3568.9951,50.37560388,16.28166902,0.44000000,
13:56:14:729,-0.1618,0.3402,0.9506,0.4020,-0.1271,-2.9789,3568.9951,50.37560388,16.28166902,0.44000000,
13:56:14:737,-0.1618,0.3402,0.9506,0.4020,-0.1271,-2.9789,3568.9951,50.37560388,16.28166902,0.44000000,
13:56:14:749,-0.1981,0.3392,0.8928,0.4020,-0.1271,-2.9789,3568.9951,50.37560388,16.28166902,0.44000000,
13:56:14:754,-0.1981,0.3392,0.8928,0.6248,-0.0298,-1.0676,3568.9951,50.37560388,16.28166902,0.44000000,
13:56:14:770,-0.2318,0.3528,0.8207,0.6248,-0.0298,-1.0676,3568.9951,50.37560388,16.28166902,0.44000000,
13:56:14:791,-0.2530,0.3742,0.7904,0.6248,-0.0298,-1.0676,3568.9951,50.37560388,16.28166902,0.44000000,
13:56:14:804,-0.2530,0.3742,0.7904,0.6248,-0.0298,-1.0676,3568.9951,50.37560388,16.28166902,0.44000000,
13:56:14:811,-0.2530,0.3742,0.7904,0.6248,-0.0298,-1.0676,1249.0200,50.37560388,16.28166902,0.44000000,
13:56:14:819,-0.2315,0.3879,0.8064,0.6248,-0.0298,-1.0676,1249.0200,50.37560388,16.28166902,0.44000000,
13:56:14:822,-0.2315,0.3879,0.8064,-0.2014,-0.5519,0.4239,1249.0200,50.37560388,16.28166902,0.44000000,
13:56:14:833,-0.1979,0.4054,0.8445,-0.2014,-0.5519,0.4239,1249.0200,50.37560388,16.28166902,0.44000000,
13:56:14:854,-0.2011,0.4335,0.8614,-0.2014,-0.5519,0.4239,1249.0200,50.37560388,16.28166902,0.44000000,
13:56:14:872,-0.2011,0.4335,0.8614,-0.2014,-0.5519,0.4239,1249.0200,50.37560388,16.28166902,0.44000000,
13:56:14:877,-0.2143,0.4696,0.8349,-0.2014,-0.5519,0.4239,1249.0200,50.37560388,16.28166902,0.44000000,
13:56:14:889,-0.2143,0.4696,0.8349,-0.8050,-0.6139,-0.4075,1249.0200,50.37560388,16.28166902,0.44000000,
13:56:14:898,-0.1894,0.5126,0.8086,-0.8050,-0.6139,-0.4075,1249.0200,50.37560388,16.28166902,0.44000000,
13:56:14:919,-0.1527,0.5565,0.7702,-0.8050,-0.6139,-0.4075,1249.0200,50.37560388,16.28166902,0.44000000,
13:56:14:940,-0.1527,0.5565,0.7702,-0.8050,-0.6139,-0.4075,1249.0200,50.37560388,16.28166902,0.44000000,
13:56:14:944,-0.1198,0.6103,0.7319,-0.8050,-0.6139,-0.4075,1249.0200,50.37560388,16.28166902,0.44000000,
13:56:14:959,-0.1198,0.6103,0.7319,-0.6113,-0.2962,0.1545,1249.0200,50.37560388,16.28166902,0.44000000,
13:56:14:961,-0.0812,0.6568,0.7249,-0.6113,-0.2962,0.1545,1249.0200,50.37560388,16.28166902,0.44000000,
13:56:14:970,-0.0812,0.6568,0.7249,-0.6113,-0.2962,0.1545,1688.9851,50.37560388,16.28166902,0.44000000,
13:56:14:987,-0.0597,0.6796,0.7653,-0.6113,-0.2962,0.1545,1688.9851,50.37560388,16.28166902,0.44000000,
13:56:15:002,-0.0791,0.6911,0.7957,-0.6113,-0.2962,0.1545,1688.9851,50.37560388,16.28166902,0.44000000,
13:56:15:007,-0.0791,0.6911,0.7957,-0.6113,-0.2962,0.1545,1688.9851,50.37560388,16.28166902,0.44000000,
13:56:15:029,-0.0791,0.6911,0.7957,0.1529,0.8419,-0.5976,1688.9851,50.37560388,16.28166902,0.44000000,
13:56:15:030,-0.1304,0.7068,0.8125,0.1529,0.8419,-0.5976,1688.9851,50.37560388,16.28166902,0.44000000,
13:56:15:045,-0.1283,0.7074,0.8045,0.1529,0.8419,-0.5976,1688.9851,50.37560388,16.28166902,0.44000000,
13:56:15:068,-0.0756,0.7102,0.7742,0.1529,0.8419,-0.5976,1688.9851,50.37560388,16.28166902,0.44000000,
13:56:15:075,-0.0756,0.7102,0.7742,0.1529,0.8419,-0.5976,1688.9851,50.37560388,16.28166902,0.44000000,
13:56:15:089,-0.0384,0.6938,0.7852,0.1529,0.8419,-0.5976,1688.9851,50.37560388,16.28166902,0.44000000,
13:56:15:091,-0.0384,0.6938,0.7852,0.4801,1.5134,-0.1450,1688.9851,50.37560388,16.28166902,0.44000000,
13:56:15:109,-0.1000,0.6187,0.8213,0.4801,1.5134,-0.1450,1688.9851,50.37560388,16.28166902,0.44000000,
13:56:15:130,-0.2086,0.5525,0.8496,0.4801,1.5134,-0.1450,1688.9851,50.37560388,16.28166902,0.44000000,
13:56:15:143,-0.2086,0.5525,0.8496,0.4801,1.5134,-0.1450,1688.9851,50.37560388,16.28166902,0.44000000,
13:56:15:152,-0.2641,0.5226,0.8736,0.4801,1.5134,-0.1450,1688.9851,50.37560388,16.28166902,0.44000000,
13:56:15:159,-0.2641,0.5226,0.8736,0.5875,1.5481,-0.1822,1688.9851,50.37560388,16.28166902,0.44000000,
13:56:15:167,-0.2641,0.5226,0.8736,0.5875,1.5481,-0.1822,1168.0200,50.37560388,16.28166902,0.44000000,
13:56:15:174,-0.2362,0.5300,1.0500,0.5875,1.5481,-0.1822,1168.0200,50.37560388,16.28166902,0.44000000,
13:56:15:194,-0.0920,0.4261,1.3919,0.5875,1.5481,-0.1822,1168.0200,50.37560388,16.28166902,0.44000000,
13:56:15:211,-0.0920,0.4261,1.3919,0.5875,1.5481,-0.1822,1168.0200,50.37560388,16.28166902,0.44000000,
13:56:15:215,-0.0062,0.2932,1.5962,0.5875,1.5481,-0.1822,1168.0200,50.37560388,16.28166902,0.44000000,
13:56:15:229,-0.0062,0.2932,1.5962,-1.0086,0.4452,0.2291,1168.0200,50.37560388,16.28166902,0.44000000,
13:56:15:236,0.0454,0.2323,1.4850,-1.0086,0.4452,0.2291,1168.0200,50.37560388,16.28166902,0.44000000,
13:56:15:258,0.0864,0.2749,1.1957,-1.0086,0.4452,0.2291,1168.0200,50.37560388,16.28166902,0.44000000,
13:56:15:278,0.0864,0.2749,1.1957,-1.0086,0.4452,0.2291,1168.0200,50.37560388,16.28166902,0.44000000,
13:56:15:279,0.1159,0.3231,0.9946,-1.0086,0.4452,0.2291,1168.0200,50.37560388,16.28166902,0.44000000,
13:56:15:296,0.1159,0.3231,0.9946,0.0822,-1.3491,5.1614,1168.0200,50.37560388,16.28166902,0.44000000,
13:56:15:300,0.1420,0.2973,0.9726,0.0822,-1.3491,5.1614,1168.0200,50.37560388,16.28166902,0.44000000,
13:56:15:321,0.1032,0.2704,1.0265,0.0822,-1.3491,5.1614,1168.0200,50.37560388,16.28166902,0.44000000,
13:56:15:327,0.1032,0.2704,1.0265,0.0822,-1.3491,5.1614,1287.0226,50.37560388,16.28166902,0.44000000,
13:56:15:345,0.0468,0.2717,1.0332,0.0822,-1.3491,5.1614,1287.0226,50.37560388,16.28166902,0.44000000,
13:56:15:348,0.0468,0.2717,1.0332,0.0822,-1.3491,5.1614,1287.0226,50.37560388,16.28166902,0.44000000,
13:56:15:363,0.0468,0.2717,1.0332,1.3223,-1.5956,1.5668,1287.0226,50.37560388,16.28166902,0.44000000,
13:56:15:366,0.0202,0.2976,1.0004,1.3223,-1.5956,1.5668,1287.0226,50.37560388,16.28166902,0.44000000,
13:56:15:385,0.0300,0.3472,0.9723,1.3223,-1.5956,1.5668,1287.0226,50.37560388,16.28166902,0.44000000,
13:56:15:414,0.0300,0.3472,0.9723,1.3223,-1.5956,1.5668,1287.0226,50.37560388,16.28166902,0.44000000,
13:56:15:432,0.0300,0.3472,0.9723,0.6012,-1.1369,0.4963,1287.0226,50.37560388,16.28166902,0.44000000,
13:56:15:457,0.1329,0.4563,0.9696,0.6012,-1.1369,0.4963,1287.0226,50.37560388,16.28166902,0.44000000,
13:56:15:482,0.1329,0.4563,0.9696,0.6012,-1.1369,0.4963,1287.0226,50.37560388,16.28166902,0.44000000,
13:56:15:486,0.1329,0.4563,0.9696,0.6012,-1.1369,0.4963,1061.0326,50.37560388,16.28166902,0.44000000,
13:56:15:499,0.1329,0.4563,0.9696,0.8032,0.2905,-0.0319,1061.0326,50.37560388,16.28166902,0.44000000,
13:56:15:534,0.0822,0.5201,0.8540,0.8032,0.2905,-0.0319,1061.0326,50.37560388,16.28166902,0.44000000,
13:56:15:536,0.0955,0.5027,0.7895,0.8032,0.2905,-0.0319,1061.0326,50.37560388,16.28166902,0.44000000,
13:56:15:550,0.0955,0.5027,0.7895,0.8032,0.2905,-0.0319,1061.0326,50.37560388,16.28166902,0.44000000,
13:56:15:554,0.0717,0.4813,0.6981,0.8032,0.2905,-0.0319,1061.0326,50.37560388,16.28166902,0.44000000,
13:56:15:568,0.0717,0.4813,0.6981,0.8127,0.9682,-0.5114,1061.0326,50.37560388,16.28166902,0.44000000,
13:56:15:618,0.0717,0.4813,0.6981,0.8127,0.9682,-0.5114,1061.0326,50.37560388,16.28166902,0.44000000,
13:56:15:621,0.0394,0.4704,0.6207,0.8127,0.9682,-0.5114,1061.0326,50.37560388,16.28166902,0.44000000,
13:56:15:625,0.0220,0.4480,0.5842,0.8127,0.9682,-0.5114,1061.0326,50.37560388,16.28166902,0.44000000,
13:56:15:628,0.0028,0.4257,0.5749,0.8127,0.9682,-0.5114,1061.0326,50.37560388,16.28166902,0.44000000,
13:56:15:635,0.0028,0.4257,0.5749,0.3921,0.3819,-2.2017,1061.0326,50.37560388,16.28166902,0.44000000,
13:56:15:647,-0.0248,0.4113,0.5901,0.3921,0.3819,-2.2017,1061.0326,50.37560388,16.28166902,0.44000000,
13:56:15:650,-0.0248,0.4113,0.5901,0.3921,0.3819,-2.2017,1024.9875,50.37560388,16.28166902,0.44000000,
13:56:15:685,-0.0248,0.4113,0.5901,0.3921,0.3819,-2.2017,1024.9875,50.37560388,16.28166902,0.44000000,
13:56:15:703,-0.0248,0.4113,0.5901,-0.2292,-0.4740,-2.8019,1024.9875,50.37560388,16.28166902,0.44000000,
13:56:15:714,-0.0349,0.4068,0.5828,-0.2292,-0.4740,-2.8019,1024.9875,50.37560388,16.28166902,0.44000000,
13:56:15:718,-0.0670,0.4473,0.5839,-0.2292,-0.4740,-2.8019,1024.9875,50.37560388,16.28166902,0.44000000,
13:56:15:720,-0.1309,0.5114,0.5993,-0.2292,-0.4740,-2.8019,1024.9875,50.37560388,16.28166902,0.44000000,
13:56:15:722,-0.2042,0.5863,0.6579,-0.2292,-0.4740,-2.8019,1024.9875,50.37560388,16.28166902,0.44000000,
13:56:15:754,-0.2042,0.5863,0.6579,-0.2292,-0.4740,-2.8019,1024.9875,50.37560388,16.28166902,0.44000000,
13:56:15:770,-0.2042,0.5863,0.6579,-1.0452,-0.1436,-2.2003,1024.9875,50.37560388,16.28166902,0.44000000,
13:56:15:781,-0.2593,0.6672,0.7355,-1.0452,-0.1436,-2.2003,1024.9875,50.37560388,16.28166902,0.44000000,
13:56:15:785,-0.2342,0.7354,0.8222,-1.0452,-0.1436,-2.2003,1024.9875,50.37560388,16.28166902,0.44000000,
13:56:15:787,-0.1356,0.7935,0.9207,-1.0452,-0.1436,-2.2003,1024.9875,50.37560388,16.28166902,0.44000000,
13:56:15:807,-0.1356,0.7935,0.9207,-1.0452,-0.1436,-2.2003,963.0225,50.37560388,16.28166902,0.44000000,
13:56:15:809,-0.0713,0.8338,0.9778,-1.0452,-0.1436,-2.2003,963.0225,50.37560388,16.28166902,0.44000000,
13:56:15:822,-0.0713,0.8338,0.9778,-1.0452,-0.1436,-2.2003,963.0225,50.37560388,16.28166902,0.44000000,
13:56:15:838,-0.0713,0.8338,0.9778,-1.9386,1.5073,0.0131,963.0225,50.37560388,16.28166902,0.44000000,
13:56:15:874,-0.1043,0.8286,0.9991,-1.9386,1.5073,0.0131,963.0225,50.37560388,16.28166902,0.44000000,
13:56:15:877,-0.1958,0.7953,0.9837,-1.9386,1.5073,0.0131,963.0225,50.37560388,16.28166902,0.44000000,
13:56:15:879,-0.2348,0.7502,0.9554,-1.9386,1.5073,0.0131,963.0225,50.37560388,16.28166902,0.44000000,
13:56:15:890,-0.2348,0.7502,0.9554,-1.9386,1.5073,0.0131,963.0225,50.37560388,16.28166902,0.44000000,
13:56:15:909,-0.2348,0.7502,0.9554,-0.8384,2.0931,1.7528,963.0225,50.37560388,16.28166902,0.44000000,
13:56:15:941,-0.1808,0.6970,0.9361,-0.8384,2.0931,1.7528,963.0225,50.37560388,16.28166902,0.44000000,
13:56:15:946,-0.0471,0.6804,0.9024,-0.8384,2.0931,1.7528,963.0225,50.37560388,16.28166902,0.44000000,
13:56:15:948,0.0467,0.6428,0.9096,-0.8384,2.0931,1.7528,963.0225,50.37560388,16.28166902,0.44000000,
13:56:15:957,0.0467,0.6428,0.9096,-0.8384,2.0931,1.7528,963.0225,50.37560388,16.28166902,0.44000000,
13:56:15:967,0.0467,0.6428,0.9096,-0.8384,2.0931,1.7528,973.0125,50.37560388,16.28166902,0.44000000,
13:56:15:968,0.0428,0.5749,0.9714,-0.8384,2.0931,1.7528,973.0125,50.37560388,16.28166902,0.44000000,
13:56:15:969,-0.0093,0.4735,1.0525,-0.8384,2.0931,1.7528,973.0125,50.37560388,16.28166902,0.44000000,
13:56:15:976,-0.0093,0.4735,1.0525,-0.9174,1.1572,0.8770,973.0125,50.37560388,16.28166902,0.44000000,
13:56:15:995,-0.0654,0.3728,1.1287,-0.9174,1.1572,0.8770,973.0125,50.37560388,16.28166902,0.44000000,
13:56:16:026,-0.0654,0.3728,1.1287,-0.9174,1.1572,0.8770,973.0125,50.37559178,16.28168711,0.69999999,
13:56:16:044,-0.0654,0.3728,1.1287,0.6853,-0.0313,1.1155,973.0125,50.37559178,16.28168711,0.69999999,
13:56:16:047,-0.1156,0.3179,1.1841,0.6853,-0.0313,1.1155,973.0125,50.37559178,16.28168711,0.69999999,
13:56:16:049,-0.1123,0.2914,1.1551,0.6853,-0.0313,1.1155,973.0125,50.37559178,16.28168711,0.69999999,
13:56:16:066,-0.0641,0.2976,1.0376,0.6853,-0.0313,1.1155,973.0125,50.37559178,16.28168711,0.69999999,
13:56:16:092,-0.0641,0.2976,1.0376,0.6853,-0.0313,1.1155,973.0125,50.37559178,16.28168711,0.69999999,
13:56:16:110,-0.0641,0.2976,1.0376,-0.4454,-1.7195,2.1071,973.0125,50.37559178,16.28168711,0.69999999,
13:56:16:127,-0.0641,0.2976,1.0376,-0.4454,-1.7195,2.1071,900.9901,50.37559178,16.28168711,0.69999999,
13:56:16:129,-0.0421,0.3275,0.9226,-0.4454,-1.7195,2.1071,900.9901,50.37559178,16.28168711,0.69999999,
13:56:16:131,-0.0457,0.3196,0.9251,-0.4454,-1.7195,2.1071,900.9901,50.37559178,16.28168711,0.69999999,
13:56:16:132,-0.0568,0.2901,1.0164,-0.4454,-1.7195,2.1071,900.9901,50.37559178,16.28168711,0.69999999,
13:56:16:160,-0.0568,0.2901,1.0164,-0.4454,-1.7195,2.1071,900.9901,50.37559178,16.28168711,0.69999999,
13:56:16:178,-0.0568,0.2901,1.0164,-0.0930,-1.3274,0.1038,900.9901,50.37559178,16.28168711,0.69999999,
13:56:16:194,-0.0551,0.2712,1.1005,-0.0930,-1.3274,0.1038,900.9901,50.37559178,16.28168711,0.69999999,
13:56:16:198,-0.0264,0.2577,1.1410,-0.0930,-1.3274,0.1038,900.9901,50.37559178,16.28168711,0.69999999,
13:56:16:201,0.0050,0.2426,1.1018,-0.0930,-1.3274,0.1038,900.9901,50.37559178,16.28168711,0.69999999,
13:56:16:228,0.0050,0.2426,1.1018,-0.0930,-1.3274,0.1038,900.9901,50.37559178,16.28168711,0.69999999,
13:56:16:245,0.0050,0.2426,1.1018,0.2396,-1.5853,1.4329,900.9901,50.37559178,16.28168711,0.69999999,
13:56:16:261,0.0067,0.2580,0.9985,0.2396,-1.5853,1.4329,900.9901,50.37559178,16.28168711,0.69999999,
13:56:16:263,-0.0121,0.2707,0.9125,0.2396,-1.5853,1.4329,900.9901,50.37559178,16.28168711,0.69999999,
13:56:16:265,-0.0394,0.2628,0.8772,0.2396,-1.5853,1.4329,900.9901,50.37559178,16.28168711,0.69999999,
13:56:16:287,-0.0394,0.2628,0.8772,0.2396,-1.5853,1.4329,861.0300,50.37559178,16.28168711,0.69999999,
13:56:16:291,-0.0734,0.2541,0.8870,0.2396,-1.5853,1.4329,861.0300,50.37559178,16.28168711,0.69999999,
13:56:16:295,-0.0809,0.2533,0.9040,0.2396,-1.5853,1.4329,861.0300,50.37559178,16.28168711,0.69999999,
13:56:16:298,-0.0809,0.2533,0.9040,0.2396,-1.5853,1.4329,861.0300,50.37559178,16.28168711,0.69999999,
13:56:16:314,-0.0809,0.2533,0.9040,0.4536,-1.2026,-0.3941,861.0300,50.37559178,16.28168711,0.69999999,
13:56:16:354,-0.0986,0.2633,0.8855,0.4536,-1.2026,-0.3941,861.0300,50.37559178,16.28168711,0.69999999,
13:56:16:358,-0.1242,0.2762,0.8432,0.4536,-1.2026,-0.3941,861.0300,50.37559178,16.28168711,0.69999999,
13:56:16:361,-0.1431,0.2951,0.8043,0.4536,-1.2026,-0.3941,861.0300,50.37559178,16.28168711,0.69999999,
13:56:16:365,-0.1431,0.2951,0.8043,0.4536,-1.2026,-0.3941,861.0300,50.37559178,16.28168711,0.69999999,
13:56:16:382,-0.1431,0.2951,0.8043,-0.0485,-1.0120,-0.7008,861.0300,50.37559178,16.28168711,0.69999999,
13:56:16:385,-0.1525,0.3153,0.7810,-0.0485,-1.0120,-0.7008,861.0300,50.37559178,16.28168711,0.69999999,
13:56:16:421,-0.1527,0.3300,0.7622,-0.0485,-1.0120,-0.7008,861.0300,50.37559178,16.28168711,0.69999999,
13:56:16:423,-0.1654,0.3453,0.7719,-0.0485,-1.0120,-0.7008,861.0300,50.37559178,16.28168711,0.69999999,
13:56:16:432,-0.1654,0.3453,0.7719,-0.0485,-1.0120,-0.7008,861.0300,50.37559178,16.28168711,0.69999999,
13:56:16:448,-0.1654,0.3453,0.7719,-0.0485,-1.0120,-0.7008,866.9700,50.37559178,16.28168711,0.69999999,
13:56:16:451,-0.1639,0.3514,0.8204,-0.0485,-1.0120,-0.7008,866.9700,50.37559178,16.28168711,0.69999999,
13:56:16:454,-0.1639,0.3514,0.8204,-0.5238,-0.4038,-1.4761,866.9700,50.37559178,16.28168711,0.69999999,
13:56:16:500,-0.1639,0.3514,0.8204,-0.5238,-0.4038,-1.4761,866.9700,50.37559178,16.28168711,0.69999999,
13:56:16:514,-0.1442,0.3417,0.8576,-0.5238,-0.4038,-1.4761,866.9700,50.37559178,16.28168711,0.69999999,
13:56:16:518,-0.1221,0.3386,0.8741,-0.5238,-0.4038,-1.4761,866.9700,50.37559178,16.28168711,0.69999999,
13:56:16:521,-0.1017,0.3438,0.8741,-0.5238,-0.4038,-1.4761,866.9700,50.37559178,16.28168711,0.69999999,
13:56:16:524,-0.1017,0.3438,0.8741,-0.6251,-0.0206,-1.2122,866.9700,50.37559178,16.28168711,0.69999999,
13:56:16:568,-0.1017,0.3438,0.8741,-0.6251,-0.0206,-1.2122,866.9700,50.37559178,16.28168711,0.69999999,
13:56:16:581,-0.0831,0.3529,0.8577,-0.6251,-0.0206,-1.2122,866.9700,50.37559178,16.28168711,0.69999999,
13:56:16:585,-0.0807,0.3662,0.7942,-0.6251,-0.0206,-1.2122,866.9700,50.37559178,16.28168711,0.69999999,
13:56:16:588,-0.0957,0.3830,0.7333,-0.6251,-0.0206,-1.2122,866.9700,50.37559178,16.28168711,0.69999999,
13:56:16:590,-0.1112,0.3976,0.7104,-0.6251,-0.0206,-1.2122,866.9700,50.37559178,16.28168711,0.69999999,
13:56:16:592,-0.1112,0.3976,0.7104,-0.0754,-0.1943,-0.4674,866.9700,50.37559178,16.28168711,0.69999999,
13:56:16:608,-0.1112,0.3976,0.7104,-0.0754,-0.1943,-0.4674,862.9875,50.37559178,16.28168711,0.69999999,
13:56:16:610,-0.1133,0.4053,0.7097,-0.0754,-0.1943,-0.4674,862.9875,50.37559178,16.28168711,0.69999999,
13:56:16:635,-0.1133,0.4053,0.7097,-0.0754,-0.1943,-0.4674,862.9875,50.37559178,16.28168711,0.69999999,
13:56:16:652,-0.1133,0.4053,0.7097,-0.1046,0.0868,-1.4821,862.9875,50.37559178,16.28168711,0.69999999,
13:56:16:674,-0.1134,0.4172,0.7071,-0.1046,0.0868,-1.4821,862.9875,50.37559178,16.28168711,0.69999999,
13:56:16:678,-0.1061,0.4281,0.7166,-0.1046,0.0868,-1.4821,862.9875,50.37559178,16.28168711,0.69999999,
13:56:16:681,-0.1057,0.4322,0.7529,-0.1046,0.0868,-1.4821,862.9875,50.37559178,16.28168711,0.69999999,
13:56:16:703,-0.1057,0.4322,0.7529,-0.1046,0.0868,-1.4821,862.9875,50.37559178,16.28168711,0.69999999,
13:56:16:719,-0.1057,0.4322,0.7529,-0.2739,0.5195,-1.6266,862.9875,50.37559178,16.28168711,0.69999999,
13:56:16:742,-0.1063,0.4235,0.8079,-0.2739,0.5195,-1.6266,862.9875,50.37559178,16.28168711,0.69999999,
13:56:16:746,-0.1181,0.4165,0.8571,-0.2739,0.5195,-1.6266,862.9875,50.37559178,16.28168711,0.69999999,
13:56:16:749,-0.1267,0.4123,0.9023,-0.2739,0.5195,-1.6266,862.9875,50.37559178,16.28168711,0.69999999,
13:56:16:768,-0.1267,0.4123,0.9023,-0.2739,0.5195,-1.6266,838.0125,50.37559178,16.28168711,0.69999999,
13:56:16:772,-0.1259,0.4026,0.9350,-0.2739,0.5195,-1.6266,838.0125,50.37559178,16.28168711,0.69999999,
13:56:16:774,-0.1259,0.4026,0.9350,-0.2739,0.5195,-1.6266,838.0125,50.37559178,16.28168711,0.69999999,
13:56:16:788,-0.1259,0.4026,0.9350,-0.2435,0.5333,-0.4584,838.0125,50.37559178,16.28168711,0.69999999,
13:56:16:834,-0.1344,0.4031,0.9226,-0.2435,0.5333,-0.4584,838.0125,50.37559178,16.28168711,0.69999999,
13:56:16:839,-0.1421,0.4122,0.8733,-0.2435,0.5333,-0.4584,838.0125,50.37559178,16.28168711,0.69999999,
13:56:16:842,-0.1378,0.4198,0.8208,-0.2435,0.5333,-0.4584,838.0125,50.37559178,16.28168711,0.69999999,
13:56:16:844,-0.1222,0.4328,0.7943,-0.2435,0.5333,-0.4584,838.0125,50.37559178,16.28168711,0.69999999,
13:56:16:846,-0.1222,0.4328,0.7943,-0.2435,0.5333,-0.4584,838.0125,50.37559178,16.28168711,0.69999999,
13:56:16:856,-0.1222,0.4328,0.7943,-0.4031,0.2573,0.3600,838.0125,50.37559178,16.28168711,0.69999999,
13:56:16:901,-0.1050,0.4489,0.7683,-0.4031,0.2573,0.3600,838.0125,50.37559178,16.28168711,0.69999999,
13:56:16:904,-0.0824,0.4654,0.7413,-0.4031,0.2573,0.3600,838.0125,50.37559178,16.28168711,0.69999999,
13:56:16:906,-0.0554,0.4787,0.7180,-0.4031,0.2573,0.3600,838.0125,50.37559178,16.28168711,0.69999999,
13:56:16:910,-0.0554,0.4787,0.7180,-0.4031,0.2573,0.3600,838.0125,50.37559178,16.28168711,0.69999999,
13:56:16:923,-0.0554,0.4787,0.7180,-0.3595,0.4187,-0.6887,838.0125,50.37559178,16.28168711,0.69999999,
13:56:16:926,-0.0554,0.4787,0.7180,-0.3595,0.4187,-0.6887,807.9750,50.37559178,16.28168711,0.69999999,
13:56:16:928,-0.0397,0.4878,0.7352,-0.3595,0.4187,-0.6887,807.9750,50.37559178,16.28168711,0.69999999,
13:56:16:960,-0.0109,0.4767,0.7911,-0.3595,0.4187,-0.6887,807.9750,50.37559178,16.28168711,0.69999999,
13:56:16:973,-0.0109,0.4767,0.7911,-0.3595,0.4187,-0.6887,807.9750,50.37559178,16.28168711,0.69999999,
13:56:16:990,-0.0109,0.4767,0.7911,0.1401,0.8266,-1.2083,807.9750,50.37559178,16.28168711,0.69999999,
13:56:16:994,-0.0084,0.4742,0.8314,0.1401,0.8266,-1.2083,807.9750,50.37559178,16.28168711,0.69999999,
13:56:16:995,-0.0350,0.4728,0.8338,0.1401,0.8266,-1.2083,807.9750,50.37559178,16.28168711,0.69999999,
13:56:17:026,-0.0574,0.4815,0.8396,0.1401,0.8266,-1.2083,807.9750,50.37559178,16.28168711,0.69999999,
13:56:17:028,-0.0797,0.4849,0.8618,0.1401,0.8266,-1.2083,807.9750,50.37559178,16.28168711,0.69999999,
13:56:17:041,-0.0797,0.4849,0.8618,0.1401,0.8266,-1.2083,807.9750,50.37559178,16.28168711,0.69999999,
13:56:17:059,-0.0797,0.4849,0.8618,0.2857,0.9597,-0.4100,807.9750,50.37559178,16.28168711,0.69999999,
13:56:17:088,-0.0797,0.4849,0.8618,0.2857,0.9597,-0.4100,758.9700,50.37559178,16.28168711,0.69999999,
13:56:17:092,-0.1014,0.4628,0.9798,0.2857,0.9597,-0.4100,758.9700,50.37559178,16.28168711,0.69999999,
13:56:17:095,-0.1071,0.3895,1.1962,0.2857,0.9597,-0.4100,758.9700,50.37559178,16.28168711,0.69999999,
13:56:17:109,-0.1071,0.3895,1.1962,0.2857,0.9597,-0.4100,758.9700,50.37559178,16.28168711,0.69999999,
13:56:17:127,-0.1071,0.3895,1.1962,-0.7258,0.9230,0.6405,758.9700,50.37559178,16.28168711,0.69999999,
13:56:17:154,-0.1049,0.3428,1.3967,-0.7258,0.9230,0.6405,758.9700,50.37559178,16.28168711,0.69999999,
13:56:17:157,-0.0610,0.3387,1.4422,-0.7258,0.9230,0.6405,758.9700,50.37559178,16.28168711,0.69999999,
13:56:17:159,0.0490,0.3637,1.3530,-0.7258,0.9230,0.6405,758.9700,50.37559178,16.28168711,0.69999999,
13:56:17:161,0.1847,0.3588,1.2291,-0.7258,0.9230,0.6405,758.9700,50.37559178,16.28168711,0.69999999,
13:56:17:177,0.1847,0.3588,1.2291,-0.7258,0.9230,0.6405,758.9700,50.37559178,16.28168711,0.69999999,
13:56:17:195,0.1847,0.3588,1.2291,-0.8387,-0.1096,4.3637,758.9700,50.37559178,16.28168711,0.69999999,
13:56:17:221,0.2420,0.3463,1.1609,-0.8387,-0.1096,4.3637,758.9700,50.37559178,16.28168711,0.69999999,
13:56:17:224,0.2617,0.3007,1.1831,-0.8387,-0.1096,4.3637,758.9700,50.37559178,16.28168711,0.69999999,
13:56:17:226,0.2694,0.2699,1.2673,-0.8387,-0.1096,4.3637,758.9700,50.37559178,16.28168711,0.69999999,
13:56:17:245,0.2694,0.2699,1.2673,-0.8387,-0.1096,4.3637,758.9700,50.37559178,16.28168711,0.69999999,
13:56:17:248,0.2694,0.2699,1.2673,-0.8387,-0.1096,4.3637,666.0225,50.37559178,16.28168711,0.69999999,
13:56:17:250,0.2966,0.2528,1.3411,-0.8387,-0.1096,4.3637,666.0225,50.37559178,16.28168711,0.69999999,
13:56:17:263,0.2966,0.2528,1.3411,1.4043,0.1926,2.1077,666.0225,50.37559178,16.28168711,0.69999999,
13:56:17:314,0.2966,0.2528,1.3411,1.4043,0.1926,2.1077,666.0225,50.37559178,16.28168711,0.69999999,
13:56:17:315,0.3378,0.2399,1.3468,1.4043,0.1926,2.1077,666.0225,50.37559178,16.28168711,0.69999999,
13:56:17:316,0.3475,0.2321,1.2970,1.4043,0.1926,2.1077,666.0225,50.37559178,16.28168711,0.69999999,
13:56:17:318,0.3229,0.2133,1.2350,1.4043,0.1926,2.1077,666.0225,50.37559178,16.28168711,0.69999999,
13:56:17:331,0.3229,0.2133,1.2350,1.8419,-0.4154,2.8888,666.0225,50.37559178,16.28168711,0.69999999,
13:56:17:381,0.3229,0.2133,1.2350,1.8419,-0.4154,2.8888,666.0225,50.37559178,16.28168711,0.69999999,
13:56:17:384,0.2826,0.1857,1.1912,1.8419,-0.4154,2.8888,666.0225,50.37559178,16.28168711,0.69999999,
13:56:17:387,0.2583,0.1815,1.1489,1.8419,-0.4154,2.8888,666.0225,50.37559178,16.28168711,0.69999999,
13:56:17:390,0.2580,0.1931,1.0851,1.8419,-0.4154,2.8888,666.0225,50.37559178,16.28168711,0.69999999,
13:56:17:397,0.2580,0.1931,1.0851,1.6341,-0.8262,1.7803,666.0225,50.37559178,16.28168711,0.69999999,
13:56:17:409,0.2580,0.1931,1.0851,1.6341,-0.8262,1.7803,595.0125,50.37559178,16.28168711,0.69999999,
13:56:17:413,0.2785,0.2295,0.9920,1.6341,-0.8262,1.7803,595.0125,50.37559178,16.28168711,0.69999999,
13:56:17:449,0.2785,0.2295,0.9920,1.6341,-0.8262,1.7803,595.0125,50.37559178,16.28168711,0.69999999,
13:56:17:465,0.2785,0.2295,0.9920,1.1920,-0.8535,-0.0606,595.0125,50.37559178,16.28168711,0.69999999,
13:56:17:474,0.2826,0.2725,0.8808,1.1920,-0.8535,-0.0606,595.0125,50.37559178,16.28168711,0.69999999,
13:56:17:477,0.2422,0.2987,0.7841,1.1920,-0.8535,-0.0606,595.0125,50.37559178,16.28168711,0.69999999,
13:56:17:479,0.1801,0.3161,0.7109,1.1920,-0.8535,-0.0606,595.0125,50.37559178,16.28168711,0.69999999,
13:56:17:481,0.1247,0.3363,0.6612,1.1920,-0.8535,-0.0606,595.0125,50.37559178,16.28168711,0.69999999,
13:56:17:516,0.1247,0.3363,0.6612,1.1920,-0.8535,-0.0606,595.0125,50.37559178,16.28168711,0.69999999,
13:56:17:533,0.1247,0.3363,0.6612,0.3718,-0.2842,-2.4812,595.0125,50.37559178,16.28168711,0.69999999,
13:56:17:541,0.1084,0.3524,0.6316,0.3718,-0.2842,-2.4812,595.0125,50.37559178,16.28168711,0.69999999,
13:56:17:543,0.1227,0.3625,0.6091,0.3718,-0.2842,-2.4812,595.0125,50.37559178,16.28168711,0.69999999,
13:56:17:544,0.1124,0.3753,0.5749,0.3718,-0.2842,-2.4812,595.0125,50.37559178,16.28168711,0.69999999,
13:56:17:567,0.1124,0.3753,0.5749,0.3718,-0.2842,-2.4812,570.9825,50.37559178,16.28168711,0.69999999,
13:56:17:570,0.0805,0.3868,0.5334,0.3718,-0.2842,-2.4812,570.9825,50.37559178,16.28168711,0.69999999,
13:56:17:584,0.0805,0.3868,0.5334,0.3718,-0.2842,-2.4812,570.9825,50.37559178,16.28168711,0.69999999,
13:56:17:601,0.0805,0.3868,0.5334,-0.3180,-0.2023,-3.2189,570.9825,50.37559178,16.28168711,0.69999999,
13:56:17:634,0.0460,0.3913,0.4952,-0.3180,-0.2023,-3.2189,570.9825,50.37559178,16.28168711,0.69999999,
13:56:17:638,0.0084,0.3946,0.4904,-0.3180,-0.2023,-3.2189,570.9825,50.37559178,16.28168711,0.69999999,
13:56:17:641,-0.0322,0.4020,0.5135,-0.3180,-0.2023,-3.2189,570.9825,50.37559178,16.28168711,0.69999999,
13:56:17:653,-0.0322,0.4020,0.5135,-0.3180,-0.2023,-3.2189,570.9825,50.37559178,16.28168711,0.69999999,
13:56:17:669,-0.0322,0.4020,0.5135,-0.7527,-0.2127,-3.6485,570.9825,50.37559178,16.28168711,0.69999999,
13:56:17:701,-0.0698,0.4159,0.5433,-0.7527,-0.2127,-3.6485,570.9825,50.37559178,16.28168711,0.69999999,
13:56:17:705,-0.0829,0.4387,0.5784,-0.7527,-0.2127,-3.6485,570.9825,50.37559178,16.28168711,0.69999999,
13:56:17:708,-0.0570,0.4618,0.6149,-0.7527,-0.2127,-3.6485,570.9825,50.37559178,16.28168711,0.69999999,
13:56:17:719,-0.0570,0.4618,0.6149,-0.7527,-0.2127,-3.6485,570.9825,50.37559178,16.28168711,0.69999999,
13:56:17:727,-0.0570,0.4618,0.6149,-0.7527,-0.2127,-3.6485,564.0300,50.37559178,16.28168711,0.69999999,
13:56:17:731,-0.0503,0.4831,0.6957,-0.7527,-0.2127,-3.6485,564.0300,50.37559178,16.28168711,0.69999999,
13:56:17:733,-0.0824,0.4968,0.7569,-0.7527,-0.2127,-3.6485,564.0300,50.37559178,16.28168711,0.69999999,
13:56:17:737,-0.0824,0.4968,0.7569,-1.4532,-0.1558,-2.7126,564.0300,50.37559178,16.28168711,0.69999999,
13:56:17:789,-0.0824,0.4968,0.7569,-1.4532,-0.1558,-2.7126,564.0300,50.37559178,16.28168711,0.69999999,
13:56:17:794,-0.1433,0.5113,0.7805,-1.4532,-0.1558,-2.7126,564.0300,50.37559178,16.28168711,0.69999999,
13:56:17:797,-0.1981,0.5295,0.8049,-1.4532,-0.1558,-2.7126,564.0300,50.37559178,16.28168711,0.69999999,
13:56:17:799,-0.2077,0.5495,0.8410,-1.4532,-0.1558,-2.7126,564.0300,50.37559178,16.28168711,0.69999999,
13:56:17:806,-0.2077,0.5495,0.8410,-1.2306,0.2492,-0.9211,564.0300,50.37559178,16.28168711,0.69999999,
13:56:17:854,-0.2077,0.5495,0.8410,-1.2306,0.2492,-0.9211,564.0300,50.37559178,16.28168711,0.69999999,
13:56:17:860,-0.2134,0.5422,0.9345,-1.2306,0.2492,-0.9211,564.0300,50.37559178,16.28168711,0.69999999,
13:56:17:861,-0.2298,0.5320,1.0559,-1.2306,0.2492,-0.9211,564.0300,50.37559178,16.28168711,0.69999999,
13:56:17:862,-0.2700,0.5344,1.0986,-1.2306,0.2492,-0.9211,564.0300,50.37559178,16.28168711,0.69999999,
13:56:17:872,-0.2700,0.5344,1.0986,-1.8753,0.7463,0.2117,564.0300,50.37559178,16.28168711,0.69999999,
13:56:17:887,-0.2700,0.5344,1.0986,-1.8753,0.7463,0.2117,553.0275,50.37559178,16.28168711,0.69999999,
13:56:17:888,-0.2921,0.5710,1.0690,-1.8753,0.7463,0.2117,553.0275,50.37559178,16.28168711,0.69999999,
13:56:17:923,-0.2921,0.5710,1.0690,-1.8753,0.7463,0.2117,553.0275,50.37559178,16.28168711,0.69999999,
13:56:17:940,-0.2921,0.5710,1.0690,-2.0201,1.2128,1.9164,553.0275,50.37559178,16.28168711,0.69999999,
13:56:17:958,-0.2897,0.5828,1.0618,-2.0201,1.2128,1.9164,553.0275,50.37559178,16.28168711,0.69999999,
13:56:17:959,-0.2297,0.5223,1.1409,-2.0201,1.2128,1.9164,553.0275,50.37559178,16.28168711,0.69999999,
13:56:17:960,-0.1493,0.4354,1.3729,-2.0201,1.2128,1.9164,553.0275,50.37559178,16.28168711,0.69999999,
13:56:17:965,-0.0729,0.3378,1.8010,-2.0201,1.2128,1.9164,553.0275,50.37559178,16.28168711,0.69999999,
13:56:17:991,-0.0729,0.3378,1.8010,-2.0201,1.2128,1.9164,553.0275,50.37559178,16.28168711,0.69999999,
13:56:18:007,-0.0259,0.1681,2.1231,-2.0201,1.2128,1.9164,553.0275,50.37559178,16.28168711,0.69999999,
13:56:18:008,-0.0197,0.1456,2.0455,-2.0201,1.2128,1.9164,553.0275,50.37559178,16.28168711,0.69999999,
13:56:18:009,-0.0197,0.1456,2.0455,-1.5794,1.0779,2.8302,553.0275,50.37559178,16.28168711,0.69999999,
13:56:18:031,0.0385,0.1841,1.6652,-1.5794,1.0779,2.8302,553.0275,50.37559178,16.28168711,0.69999999,
13:56:18:047,0.1254,0.2191,1.3180,-1.5794,1.0779,2.8302,553.0275,50.37559178,16.28168711,0.69999999,
13:56:18:048,0.1254,0.2191,1.3180,-1.5794,1.0779,2.8302,503.0100,50.37559178,16.28168711,0.69999999,
13:56:18:059,0.1254,0.2191,1.3180,-1.5794,1.0779,2.8302,503.0100,50.37559178,16.28168711,0.69999999,
13:56:18:076,0.1254,0.2191,1.3180,0.1479,-2.1775,9.4482,503.0100,50.37559178,16.28168711,0.69999999,
13:56:18:114,0.1979,0.2365,1.0986,0.1479,-2.1775,9.4482,503.0100,50.37559178,16.28168711,0.69999999,
13:56:18:115,0.2332,0.2494,0.9420,0.1479,-2.1775,9.4482,503.0100,50.37559178,16.28168711,0.69999999,
13:56:18:117,0.2287,0.2597,0.7915,0.1479,-2.1775,9.4482,503.0100,50.37559178,16.28168711,0.69999999,
13:56:18:127,0.2287,0.2597,0.7915,0.1479,-2.1775,9.4482,503.0100,50.37559178,16.28168711,0.69999999,
13:56:18:143,0.2287,0.2597,0.7915,1.8070,-2.0322,1.9627,503.0100,50.37559178,16.28168711,0.69999999,
13:56:18:181,0.2025,0.2704,0.6635,1.8070,-2.0322,1.9627,503.0100,50.37559178,16.28168711,0.69999999,
13:56:18:183,0.1850,0.2794,0.5746,1.8070,-2.0322,1.9627,503.0100,50.37559178,16.28168711,0.69999999,
13:56:18:184,0.1832,0.2863,0.5241,1.8070,-2.0322,1.9627,503.0100,50.37559178,16.28168711,0.69999999,
13:56:18:194,0.1832,0.2863,0.5241,1.8070,-2.0322,1.9627,503.0100,50.37559178,16.28168711,0.69999999,
13:56:18:207,0.1832,0.2863,0.5241,1.8070,-2.0322,1.9627,434.0250,50.37559178,16.28168711,0.69999999,
13:56:18:208,0.1754,0.2860,0.4872,1.8070,-2.0322,1.9627,434.0250,50.37559178,16.28168711,0.69999999,
13:56:18:211,0.1754,0.2860,0.4872,2.4560,-1.3954,-2.8046,434.0250,50.37559178,16.28168711,0.69999999,
13:56:18:263,0.1754,0.2860,0.4872,2.4560,-1.3954,-2.8046,434.0250,50.37559178,16.28168711,0.69999999,
13:56:18:273,0.1540,0.2837,0.4588,2.4560,-1.3954,-2.8046,434.0250,50.37559178,16.28168711,0.69999999,
13:56:18:274,0.1195,0.2792,0.4462,2.4560,-1.3954,-2.8046,434.0250,50.37559178,16.28168711,0.69999999,
13:56:18:275,0.0780,0.2720,0.4635,2.4560,-1.3954,-2.8046,434.0250,50.37559178,16.28168711,0.69999999,
13:56:18:278,0.0780,0.2720,0.4635,2.1824,-0.9298,-4.4358,434.0250,50.37559178,16.28168711,0.69999999,
13:56:18:330,0.0780,0.2720,0.4635,2.1824,-0.9298,-4.4358,434.0250,50.37559178,16.28168711,0.69999999,
13:56:18:340,0.0468,0.2728,0.5311,2.1824,-0.9298,-4.4358,434.0250,50.37559178,16.28168711,0.69999999,
13:56:18:342,0.0410,0.2720,0.6119,2.1824,-0.9298,-4.4358,434.0250,50.37559178,16.28168711,0.69999999,
13:56:18:343,0.0441,0.2806,0.5881,2.1824,-0.9298,-4.4358,434.0250,50.37559178,16.28168711,0.69999999,
13:56:18:344,0.0372,0.3102,0.5085,2.1824,-0.9298,-4.4358,434.0250,50.37559178,16.28168711,0.69999999,
13:56:18:348,0.0372,0.3102,0.5085,1.3077,-1.1568,-3.8832,434.0250,50.37559178,16.28168711,0.69999999,
13:56:18:367,0.0438,0.3476,0.4493,1.3077,-1.1568,-3.8832,434.0250,50.37559178,16.28168711,0.69999999,
13:56:18:369,0.0438,0.3476,0.4493,1.3077,-1.1568,-3.8832,417.0150,50.37559178,16.28168711,0.69999999,
13:56:18:397,0.0438,0.3476,0.4493,1.3077,-1.1568,-3.8832,417.0150,50.37559178,16.28168711,0.69999999,
13:56:18:414,0.0438,0.3476,0.4493,0.8316,-1.0444,-2.7888,417.0150,50.37559178,16.28168711,0.69999999,
13:56:18:434,0.0642,0.3872,0.4691,0.8316,-1.0444,-2.7888,417.0150,50.37559178,16.28168711,0.69999999,
13:56:18:436,0.0651,0.4236,0.5328,0.8316,-1.0444,-2.7888,417.0150,50.37559178,16.28168711,0.69999999,
13:56:18:437,0.0496,0.4800,0.6271,0.8316,-1.0444,-2.7888,417.0150,50.37559178,16.28168711,0.69999999,
13:56:18:465,0.0496,0.4800,0.6271,0.8316,-1.0444,-2.7888,417.0150,50.37559178,16.28168711,0.69999999,
13:56:18:482,0.0496,0.4800,0.6271,0.5627,0.1815,-2.9343,417.0150,50.37559178,16.28168711,0.69999999,
13:56:18:501,0.0454,0.5290,0.7519,0.5627,0.1815,-2.9343,417.0150,50.37559178,16.28168711,0.69999999,
13:56:18:504,0.1145,0.5513,0.9216,0.5627,0.1815,-2.9343,417.0150,50.37559178,16.28168711,0.69999999,
13:56:18:506,0.2118,0.5684,1.0912,0.5627,0.1815,-2.9343,417.0150,50.37559178,16.28168711,0.69999999,
13:56:18:527,0.2533,0.5618,1.2689,0.5627,0.1815,-2.9343,417.0150,50.37559178,16.28168711,0.69999999,
13:56:18:531,0.2533,0.5618,1.2689,0.5627,0.1815,-2.9343,398.9925,50.37559178,16.28168711,0.69999999,
13:56:18:535,0.2533,0.5618,1.2689,0.5627,0.1815,-2.9343,398.9925,50.37559178,16.28168711,0.69999999,
13:56:18:550,0.2533,0.5618,1.2689,0.3693,1.6005,0.4594,398.9925,50.37559178,16.28168711,0.69999999,
13:56:18:594,0.2592,0.5257,1.3773,0.3693,1.6005,0.4594,398.9925,50.37559178,16.28168711,0.69999999,
13:56:18:597,0.2660,0.4960,1.3837,0.3693,1.6005,0.4594,398.9925,50.37559178,16.28168711,0.69999999,
13:56:18:598,0.3177,0.5082,1.3481,0.3693,1.6005,0.4594,398.9925,50.37559178,16.28168711,0.69999999,
13:56:18:599,0.3578,0.5461,1.3250,0.3693,1.6005,0.4594,398.9925,50.37559178,16.28168711,0.69999999,
13:56:18:602,0.3578,0.5461,1.3250,0.3693,1.6005,0.4594,398.9925,50.37559178,16.28168711,0.69999999,
13:56:18:619,0.3578,0.5461,1.3250,0.9628,1.8035,4.2970,398.9925,50.37559178,16.28168711,0.69999999,
13:56:18:661,0.3483,0.5629,1.3858,0.9628,1.8035,4.2970,398.9925,50.37559178,16.28168711,0.69999999,
13:56:18:664,0.4104,0.4861,1.5814,0.9628,1.8035,4.2970,398.9925,50.37559178,16.28168711,0.69999999,
13:56:18:667,0.4780,0.3540,1.7718,0.9628,1.8035,4.2970,398.9925,50.37559178,16.28168711,0.69999999,
13:56:18:670,0.4780,0.3540,1.7718,0.9628,1.8035,4.2970,398.9925,50.37559178,16.28168711,0.69999999,
13:56:18:686,0.4780,0.3540,1.7718,1.1190,2.1529,3.9958,398.9925,50.37559178,16.28168711,0.69999999,
13:56:18:690,0.4780,0.3540,1.7718,1.1190,2.1529,3.9958,409.9950,50.37559178,16.28168711,0.69999999,
13:56:18:691,0.3981,0.2418,1.6929,1.1190,2.1529,3.9958,409.9950,50.37559178,16.28168711,0.69999999,
13:56:18:738,0.3981,0.2418,1.6929,1.1190,2.1529,3.9958,409.9950,50.37559178,16.28168711,0.69999999,
13:56:18:755,0.3981,0.2418,1.6929,1.7920,0.0134,6.2575,409.9950,50.37559178,16.28168711,0.69999999,
13:56:18:758,0.2108,0.2606,1.4011,1.7920,0.0134,6.2575,409.9950,50.37559178,16.28168711,0.69999999,
13:56:18:760,0.0861,0.2923,1.0987,1.7920,0.0134,6.2575,409.9950,50.37559178,16.28168711,0.69999999,
13:56:18:762,0.0139,0.3094,0.8988,1.7920,0.0134,6.2575,409.9950,50.37559178,16.28168711,0.69999999,
13:56:18:805,0.0139,0.3094,0.8988,1.7920,0.0134,6.2575,409.9950,50.37559178,16.28168711,0.69999999,
13:56:18:822,0.0139,0.3094,0.8988,-1.5144,-0.4366,-0.0019,409.9950,50.37559178,16.28168711,0.69999999,
13:56:18:825,-0.0012,0.3040,0.7960,-1.5144,-0.4366,-0.0019,409.9950,50.37559178,16.28168711,0.69999999,
