
time,gFx,gFy,gFz,ax,ay,az,I,Latitude,Longitude,Speed (m/s),
15:00:31:977,0.1120,0.1016,1.0967,0.0000,0.0000,0.0000,0.0000,0.00000000,0.00000000,0.00000000,
15:00:31:977,0.1120,0.1016,1.0967,0.0000,0.0000,0.0000,689.9850,50.37556715,16.28176408,0.00000000,
15:00:31:992,0.1120,0.1016,1.0967,0.0000,0.0000,0.0000,682.0200,50.37556715,16.28176408,0.00000000,
15:00:31:992,0.1560,0.0621,1.0735,0.0000,0.0000,0.0000,682.0200,50.37556715,16.28176408,0.00000000,
15:00:32:006,0.1068,0.0597,1.0358,0.0000,0.0000,0.0000,682.0200,50.37556715,16.28176408,0.00000000,
15:00:32:026,0.0460,0.0746,0.9992,0.0000,0.0000,0.0000,682.0200,50.37556715,16.28176408,0.00000000,
15:00:32:035,0.0460,0.0746,0.9992,0.0000,0.0000,0.0000,682.0200,50.37556715,16.28176408,0.00000000,
15:00:32:048,0.0459,0.0820,0.9696,0.0000,0.0000,0.0000,682.0200,50.37556715,16.28176408,0.00000000,
15:00:32:070,0.0676,0.0837,0.9624,0.0000,0.0000,0.0000,682.0200,50.37556715,16.28176408,0.00000000,
15:00:32:090,0.0649,0.0799,0.9698,0.0000,0.0000,0.0000,682.0200,50.37556715,16.28176408,0.00000000,
15:00:32:102,0.0649,0.0799,0.9698,0.0000,0.0000,0.0000,682.0200,50.37556715,16.28176408,0.00000000,
15:00:32:111,0.0494,0.0817,0.9858,0.0000,0.0000,0.0000,682.0200,50.37556715,16.28176408,0.00000000,
15:00:32:112,0.0494,0.0817,0.9858,0.0000,0.0000,0.0000,682.0200,50.37556715,16.28176408,0.00000000,
15:00:32:132,0.0447,0.0802,0.9964,0.0000,0.0000,0.0000,682.0200,50.37556715,16.28176408,0.00000000,
15:00:32:143,0.0447,0.0802,0.9964,0.0000,0.0000,0.0000,677.9700,50.37556715,16.28176408,0.00000000,
15:00:32:155,0.0463,0.0775,1.0082,0.0000,0.0000,0.0000,677.9700,50.37556715,16.28176408,0.00000000,
15:00:32:172,0.0463,0.0775,1.0082,0.0000,0.0000,0.0000,677.9700,50.37556715,16.28176408,0.00000000,
15:00:32:174,0.0451,0.0757,1.0152,0.0000,0.0000,0.0000,677.9700,50.37556715,16.28176408,0.00000000,
15:00:32:178,0.0451,0.0757,1.0152,-0.0682,0.0769,-0.1965,677.9700,50.37556715,16.28176408,0.00000000,
15:00:32:196,0.0435,0.0793,1.0148,-0.0682,0.0769,-0.1965,677.9700,50.37556715,16.28176408,0.00000000,
15:00:32:217,0.0492,0.0780,1.0066,-0.0682,0.0769,-0.1965,677.9700,50.37556715,16.28176408,0.00000000,
15:00:32:238,0.0492,0.0780,1.0066,-0.0682,0.0769,-0.1965,677.9700,50.37556715,16.28176408,0.00000000,
15:00:32:240,0.0529,0.0847,1.0055,-0.0682,0.0769,-0.1965,677.9700,50.37556715,16.28176408,0.00000000,
15:00:32:247,0.0529,0.0847,1.0055,-0.1439,-0.0134,0.1024,677.9700,50.37556715,16.28176408,0.00000000,
15:00:32:259,0.0634,0.0861,0.9945,-0.1439,-0.0134,0.1024,677.9700,50.37556715,16.28176408,0.00000000,
15:00:32:281,0.0712,0.0917,0.9870,-0.1439,-0.0134,0.1024,677.9700,50.37556715,16.28176408,0.00000000,
15:00:32:302,0.0651,0.1029,0.9839,-0.1439,-0.0134,0.1024,677.9700,50.37556715,16.28176408,0.00000000,
15:00:32:303,0.0651,0.1029,0.9839,-0.1439,-0.0134,0.1024,675.0000,50.37556715,16.28176408,0.00000000,
15:00:32:307,0.0651,0.1029,0.9839,-0.1439,-0.0134,0.1024,675.0000,50.37556715,16.28176408,0.00000000,
15:00:32:315,0.0651,0.1029,0.9839,-0.0781,-0.0357,0.0800,675.0000,50.37556715,16.28176408,0.00000000,
15:00:32:323,0.0712,0.1099,0.9770,-0.0781,-0.0357,0.0800,675.0000,50.37556715,16.28176408,0.00000000,
15:00:32:344,0.0789,0.1159,0.9795,-0.0781,-0.0357,0.0800,675.0000,50.37556715,16.28176408,0.00000000,
15:00:32:367,0.0773,0.1193,0.9796,-0.0781,-0.0357,0.0800,675.0000,50.37556715,16.28176408,0.00000000,
15:00:32:373,0.0773,0.1193,0.9796,-0.0781,-0.0357,0.0800,675.0000,50.37556715,16.28176408,0.00000000,
15:00:32:382,0.0773,0.1193,0.9796,0.0579,0.0871,-0.1045,675.0000,50.37556715,16.28176408,0.00000000,
15:00:32:387,0.0796,0.1209,0.9812,0.0579,0.0871,-0.1045,675.0000,50.37556715,16.28176408,0.00000000,
15:00:32:408,0.0899,0.1214,0.9848,0.0579,0.0871,-0.1045,675.0000,50.37556715,16.28176408,0.00000000,
15:00:32:429,0.0919,0.1156,0.9859,0.0579,0.0871,-0.1045,675.0000,50.37556715,16.28176408,0.00000000,
15:00:32:442,0.0919,0.1156,0.9859,0.0579,0.0871,-0.1045,675.0000,50.37556715,16.28176408,0.00000000,
15:00:32:451,0.0919,0.1156,0.9859,0.0983,0.2478,-0.1332,675.0000,50.37556715,16.28176408,0.00000000,
15:00:32:452,0.0811,0.1018,0.9887,0.0983,0.2478,-0.1332,675.0000,50.37556715,16.28176408,0.00000000,
15:00:32:463,0.0811,0.1018,0.9887,0.0983,0.2478,-0.1332,679.9951,50.37556715,16.28176408,0.00000000,
15:00:32:470,0.0634,0.1027,0.9846,0.0983,0.2478,-0.1332,679.9951,50.37556715,16.28176408,0.00000000,
15:00:32:493,0.0559,0.1062,0.9866,0.0983,0.2478,-0.1332,679.9951,50.37556715,16.28176408,0.00000000,
15:00:32:509,0.0559,0.1062,0.9866,0.0983,0.2478,-0.1332,679.9951,50.37556715,16.28176408,0.00000000,
15:00:32:514,0.0610,0.1213,0.9788,0.0983,0.2478,-0.1332,679.9951,50.37556715,16.28176408,0.00000000,
15:00:32:518,0.0610,0.1213,0.9788,0.2047,0.1322,-0.0567,679.9951,50.37556715,16.28176408,0.00000000,
15:00:32:534,0.0734,0.1521,0.9627,0.2047,0.1322,-0.0567,679.9951,50.37556715,16.28176408,0.00000000,
15:00:32:557,0.0866,0.1679,0.9283,0.2047,0.1322,-0.0567,679.9951,50.37556715,16.28176408,0.00000000,
15:00:32:577,0.0866,0.1679,0.9283,0.2047,0.1322,-0.0567,679.9951,50.37556715,16.28176408,0.00000000,
15:00:32:581,0.0844,0.1735,0.8925,0.2047,0.1322,-0.0567,679.9951,50.37556715,16.28176408,0.00000000,
15:00:32:588,0.0844,0.1735,0.8925,-0.0698,-0.0221,-0.0655,679.9951,50.37556715,16.28176408,0.00000000,
15:00:32:600,0.0743,0.1801,0.8778,-0.0698,-0.0221,-0.0655,679.9951,50.37556715,16.28176408,0.00000000,
15:00:32:623,0.0584,0.1922,0.8831,-0.0698,-0.0221,-0.0655,679.9951,50.37556715,16.28176408,0.00000000,
15:00:32:625,0.0584,0.1922,0.8831,-0.0698,-0.0221,-0.0655,687.0150,50.37556715,16.28176408,0.00000000,
15:00:32:641,0.0673,0.1956,0.8954,-0.0698,-0.0221,-0.0655,687.0150,50.37556715,16.28176408,0.00000000,
15:00:32:647,0.0673,0.1956,0.8954,-0.0698,-0.0221,-0.0655,687.0150,50.37556715,16.28176408,0.00000000,
15:00:32:656,0.0673,0.1956,0.8954,-0.0306,0.5356,-0.6073,687.0150,50.37556715,16.28176408,0.00000000,
15:00:32:662,0.0775,0.1944,0.9148,-0.0306,0.5356,-0.6073,687.0150,50.37556715,16.28176408,0.00000000,
15:00:32:684,0.0737,0.1857,0.9242,-0.0306,0.5356,-0.6073,687.0150,50.37556715,16.28176408,0.00000000,
15:00:32:705,0.0770,0.1713,0.9292,-0.0306,0.5356,-0.6073,687.0150,50.37556715,16.28176408,0.00000000,
15:00:32:714,0.0770,0.1713,0.9292,-0.0306,0.5356,-0.6073,687.0150,50.37556715,16.28176408,0.00000000,
15:00:32:722,0.0770,0.1713,0.9292,-0.2941,0.9394,-0.7951,687.0150,50.37556715,16.28176408,0.00000000,
15:00:32:726,0.0287,0.1172,0.9469,-0.2941,0.9394,-0.7951,687.0150,50.37556715,16.28176408,0.00000000,
15:00:32:748,0.0027,0.0197,0.9808,-0.2941,0.9394,-0.7951,687.0150,50.37556715,16.28176408,0.00000000,
15:00:32:769,0.0239,0.1820,1.0229,-0.2941,0.9394,-0.7951,687.0150,50.37556715,16.28176408,0.00000000,
15:00:32:781,0.0239,0.1820,1.0229,-0.2941,0.9394,-0.7951,687.0150,50.37556715,16.28176408,0.00000000,
15:00:32:784,0.0239,0.1820,1.0229,-0.2941,0.9394,-0.7951,747.9675,50.37556715,16.28176408,0.00000000,
15:00:32:789,0.0239,0.1820,1.0229,-0.5034,0.7708,-0.3342,747.9675,50.37556715,16.28176408,0.00000000,
15:00:32:791,0.0496,0.2181,0.9796,-0.5034,0.7708,-0.3342,747.9675,50.37556715,16.28176408,0.00000000,
15:00:32:812,0.1286,0.1727,0.9406,-0.5034,0.7708,-0.3342,747.9675,50.37556715,16.28176408,0.00000000,
15:00:32:832,0.1478,0.1525,0.9122,-0.5034,0.7708,-0.3342,747.9675,50.37556715,16.28176408,0.00000000,
15:00:32:849,0.1478,0.1525,0.9122,-0.5034,0.7708,-0.3342,747.9675,50.37556715,16.28176408,0.00000000,
15:00:32:856,0.0953,0.1654,0.9021,-0.5034,0.7708,-0.3342,747.9675,50.37556715,16.28176408,0.00000000,
15:00:32:860,0.0953,0.1654,0.9021,-0.8318,0.1447,0.2315,747.9675,50.37556715,16.28176408,0.00000000,
15:00:32:875,0.0212,0.1485,0.9361,-0.8318,0.1447,0.2315,747.9675,50.37556715,16.28176408,0.00000000,
15:00:32:896,-0.0137,0.1580,0.9516,-0.8318,0.1447,0.2315,747.9675,50.37556715,16.28176408,0.00000000,
15:00:32:919,-0.0137,0.1580,0.9516,-0.8318,0.1447,0.2315,747.9675,50.37556715,16.28176408,0.00000000,
15:00:32:922,-0.0054,0.1779,0.9571,-0.8318,0.1447,0.2315,747.9675,50.37556715,16.28176408,0.00000000,
15:00:32:927,-0.0054,0.1779,0.9571,0.1536,0.2160,-0.4015,747.9675,50.37556715,16.28176408,0.00000000,
15:00:32:940,0.0348,0.1657,0.9684,0.1536,0.2160,-0.4015,747.9675,50.37556715,16.28176408,0.00000000,
15:00:32:944,0.0348,0.1657,0.9684,0.1536,0.2160,-0.4015,776.9926,50.37556715,16.28176408,0.00000000,
15:00:32:959,0.0633,0.1561,0.9569,0.1536,0.2160,-0.4015,776.9926,50.37556715,16.28176408,0.00000000,
15:00:32:979,0.0800,0.1631,0.9367,0.1536,0.2160,-0.4015,776.9926,50.37556715,16.28176408,0.00000000,
15:00:32:983,0.0800,0.1631,0.9367,0.1536,0.2160,-0.4015,776.9926,50.37556715,16.28176408,0.00000000,
15:00:32:993,0.0800,0.1631,0.9367,-1.0820,0.1553,-0.0354,776.9926,50.37556715,16.28176408,0.00000000,
15:00:33:001,0.1053,0.1702,0.9135,-1.0820,0.1553,-0.0354,776.9926,50.37556715,16.28176408,0.00000000,
15:00:33:022,0.1341,0.1745,0.8976,-1.0820,0.1553,-0.0354,776.9926,50.37556715,16.28176408,0.00000000,
15:00:33:044,0.1452,0.1564,0.9059,-1.0820,0.1553,-0.0354,776.9926,50.37556715,16.28176408,0.00000000,
15:00:33:054,0.1452,0.1564,0.9059,-1.0820,0.1553,-0.0354,776.9926,50.37556715,16.28176408,0.00000000,
15:00:33:060,0.1452,0.1564,0.9059,-0.4026,0.2790,-0.1004,776.9926,50.37556715,16.28176408,0.00000000,
15:00:33:065,0.1452,0.1378,0.9213,-0.4026,0.2790,-0.1004,776.9926,50.37556715,16.28176408,0.00000000,
15:00:33:088,0.4026,0.1592,1.0704,-0.4026,0.2790,-0.1004,776.9926,50.37556715,16.28176408,0.00000000,
15:00:33:106,0.4026,0.1592,1.0704,-0.4026,0.2790,-0.1004,936.9675,50.37556715,16.28176408,0.00000000,
15:00:33:110,0.3083,0.2613,1.1313,-0.4026,0.2790,-0.1004,936.9675,50.37556715,16.28176408,0.00000000,
15:00:33:121,0.3083,0.2613,1.1313,-0.4026,0.2790,-0.1004,936.9675,50.37556715,16.28176408,0.00000000,
15:00:33:129,0.1591,0.2597,1.0808,-0.4026,0.2790,-0.1004,936.9675,50.37556715,16.28176408,0.00000000,
15:00:33:131,0.1591,0.2597,1.0808,0.3580,0.5107,-0.4816,936.9675,50.37556715,16.28176408,0.00000000,
15:00:33:150,0.1146,0.1307,1.1185,0.3580,0.5107,-0.4816,936.9675,50.37556715,16.28176408,0.00000000,
15:00:33:171,0.0931,0.0497,1.0864,0.3580,0.5107,-0.4816,936.9675,50.37556715,16.28176408,0.00000000,
15:00:33:188,0.0931,0.0497,1.0864,0.3580,0.5107,-0.4816,936.9675,50.37556715,16.28176408,0.00000000,
15:00:33:192,0.1213,0.0050,1.0232,0.3580,0.5107,-0.4816,936.9675,50.37556715,16.28176408,0.00000000,
15:00:33:196,0.1213,0.0050,1.0232,1.4856,1.3739,1.0887,936.9675,50.37556715,16.28176408,0.00000000,
15:00:33:214,0.1619,-0.0376,1.0237,1.4856,1.3739,1.0887,936.9675,50.37556715,16.28176408,0.00000000,
15:00:33:235,0.1519,-0.0516,1.1250,1.4856,1.3739,1.0887,936.9675,50.37556715,16.28176408,0.00000000,
15:00:33:256,0.1519,-0.0516,1.1250,1.4856,1.3739,1.0887,936.9675,50.37556715,16.28176408,0.00000000,
15:00:33:258,0.1015,-0.0778,1.2685,1.4856,1.3739,1.0887,936.9675,50.37556715,16.28176408,0.00000000,
15:00:33:264,0.1015,-0.0778,1.2685,-0.4198,0.1785,0.8800,936.9675,50.37556715,16.28176408,0.00000000,
15:00:33:266,0.1015,-0.0778,1.2685,-0.4198,0.1785,0.8800,1358.9775,50.37556715,16.28176408,0.00000000,
15:00:33:277,0.1018,-0.0938,1.3224,-0.4198,0.1785,0.8800,1358.9775,50.37556715,16.28176408,0.00000000,
15:00:33:297,0.0695,-0.0906,1.2929,-0.4198,0.1785,0.8800,1358.9775,50.37556715,16.28176408,0.00000000,
15:00:33:324,0.0695,-0.0906,1.2929,-0.4198,0.1785,0.8800,1358.9775,50.37556715,16.28176408,0.00000000,
15:00:33:325,0.1366,-0.0834,1.1637,-0.4198,0.1785,0.8800,1358.9775,50.37556715,16.28176408,0.00000000,
15:00:33:332,0.1366,-0.0834,1.1637,-0.1769,-1.0709,1.6588,1358.9775,50.37556715,16.28176408,0.00000000,
15:00:33:339,0.0974,-0.0409,0.9906,-0.1769,-1.0709,1.6588,1358.9775,50.37556715,16.28176408,0.00000000,
15:00:33:362,0.0150,-0.0262,0.9356,-0.1769,-1.0709,1.6588,1358.9775,50.37556715,16.28176408,0.00000000,
15:00:33:382,-0.0234,-0.0254,0.9936,-0.1769,-1.0709,1.6588,1358.9775,50.37556715,16.28176408,0.00000000,
15:00:33:390,-0.0234,-0.0254,0.9936,-0.1769,-1.0709,1.6588,1358.9775,50.37556715,16.28176408,0.00000000,
15:00:33:400,-0.0234,-0.0254,0.9936,-0.2617,-1.0479,1.7527,1358.9775,50.37556715,16.28176408,0.00000000,
15:00:33:404,-0.0584,0.0056,1.0359,-0.2617,-1.0479,1.7527,1358.9775,50.37556715,16.28176408,0.00000000,
15:00:33:424,-0.0584,0.0056,1.0359,-0.2617,-1.0479,1.7527,1725.0300,50.37556715,16.28176408,0.00000000,
15:00:33:426,-0.0052,0.0020,1.0638,-0.2617,-1.0479,1.7527,1725.0300,50.37556715,16.28176408,0.00000000,
15:00:33:458,-0.0052,0.0020,1.0638,-0.2617,-1.0479,1.7527,1725.0300,50.37556715,16.28176408,0.00000000,
15:00:33:467,-0.0052,0.0020,1.0638,-1.0685,-0.2217,-0.4150,1725.0300,50.37556715,16.28176408,0.00000000,
15:00:33:481,0.0360,-0.0698,1.0649,-1.0685,-0.2217,-0.4150,1725.0300,50.37556715,16.28176408,0.00000000,
15:00:33:497,0.0215,-0.0747,1.0395,-1.0685,-0.2217,-0.4150,1725.0300,50.37556715,16.28176408,0.00000000,
15:00:33:499,-0.0169,-0.0428,1.0708,-1.0685,-0.2217,-0.4150,1725.0300,50.37556715,16.28176408,0.00000000,
15:00:33:527,-0.0169,-0.0428,1.0708,-1.0685,-0.2217,-0.4150,1725.0300,50.37556715,16.28176408,0.00000000,
15:00:33:535,-0.0169,-0.0428,1.0708,-0.3978,-0.0807,0.2235,1725.0300,50.37556715,16.28176408,0.00000000,
15:00:33:566,-0.0226,-0.0245,1.0871,-0.3978,-0.0807,0.2235,1725.0300,50.37556715,16.28176408,0.00000000,
15:00:33:570,-0.0131,-0.0360,1.1152,-0.3978,-0.0807,0.2235,1725.0300,50.37556715,16.28176408,0.00000000,
15:00:33:572,-0.0438,-0.0582,1.1023,-0.3978,-0.0807,0.2235,1725.0300,50.37556715,16.28176408,0.00000000,
15:00:33:584,-0.0438,-0.0582,1.1023,-0.3978,-0.0807,0.2235,1909.9801,50.37556715,16.28176408,0.00000000,
15:00:33:586,-0.0638,-0.0643,1.0931,-0.3978,-0.0807,0.2235,1909.9801,50.37556715,16.28176408,0.00000000,
15:00:33:594,-0.0638,-0.0643,1.0931,-0.3978,-0.0807,0.2235,1909.9801,50.37556715,16.28176408,0.00000000,
15:00:33:603,-0.0638,-0.0643,1.0931,-0.4453,0.0586,0.5389,1909.9801,50.37556715,16.28176408,0.00000000,
15:00:33:651,-0.0524,-0.0497,1.0766,-0.4453,0.0586,0.5389,1909.9801,50.37556715,16.28176408,0.00000000,
15:00:33:654,-0.0334,-0.0350,1.0580,-0.4453,0.0586,0.5389,1909.9801,50.37556715,16.28176408,0.00000000,
15:00:33:657,-0.0358,-0.0132,1.0300,-0.4453,0.0586,0.5389,1909.9801,50.37556715,16.28176408,0.00000000,
15:00:33:663,-0.0358,-0.0132,1.0300,-0.4453,0.0586,0.5389,1909.9801,50.37556715,16.28176408,0.00000000,
15:00:33:672,-0.0358,-0.0132,1.0300,-0.9543,-0.4473,0.4324,1909.9801,50.37556715,16.28176408,0.00000000,
15:00:33:718,-0.0182,0.0041,1.0159,-0.9543,-0.4473,0.4324,1909.9801,50.37556715,16.28176408,0.00000000,
15:00:33:722,-0.0112,0.0277,0.9989,-0.9543,-0.4473,0.4324,1909.9801,50.37556715,16.28176408,0.00000000,
15:00:33:724,-0.0106,0.0360,1.0013,-0.9543,-0.4473,0.4324,1909.9801,50.37556715,16.28176408,0.00000000,
15:00:33:730,-0.0106,0.0360,1.0013,-0.9543,-0.4473,0.4324,1909.9801,50.37556715,16.28176408,0.00000000,
15:00:33:738,-0.0106,0.0360,1.0013,-0.9792,-0.4590,-0.1172,1909.9801,50.37556715,16.28176408,0.00000000,
15:00:33:744,-0.0106,0.0360,1.0013,-0.9792,-0.4590,-0.1172,2162.0251,50.37556715,16.28176408,0.00000000,
15:00:33:745,0.0211,0.0485,1.0107,-0.9792,-0.4590,-0.1172,2162.0251,50.37556715,16.28176408,0.00000000,
15:00:33:746,0.0753,0.0722,0.9939,-0.9792,-0.4590,-0.1172,2162.0251,50.37556715,16.28176408,0.00000000,
15:00:33:799,0.0753,0.0722,0.9939,-0.9792,-0.4590,-0.1172,2162.0251,50.37556715,16.28176408,0.00000000,
15:00:33:807,0.0753,0.0722,0.9939,-0.8043,-0.4071,-0.2496,2162.0251,50.37556715,16.28176408,0.00000000,
15:00:33:811,0.1110,0.0938,0.9433,-0.8043,-0.4071,-0.2496,2162.0251,50.37556715,16.28176408,0.00000000,
15:00:33:813,0.1310,0.1255,0.9213,-0.8043,-0.4071,-0.2496,2162.0251,50.37556715,16.28176408,0.00000000,
15:00:33:815,0.1709,0.1745,0.9338,-0.8043,-0.4071,-0.2496,2162.0251,50.37556715,16.28176408,0.00000000,
15:00:33:867,0.1709,0.1745,0.9338,-0.8043,-0.4071,-0.2496,2162.0251,50.37556715,16.28176408,0.00000000,
15:00:33:874,0.1709,0.1745,0.9338,0.1143,0.2222,-0.7692,2162.0251,50.37556715,16.28176408,0.00000000,
15:00:33:878,0.1820,0.1706,0.9610,0.1143,0.2222,-0.7692,2162.0251,50.37556715,16.28176408,0.00000000,
15:00:33:881,0.1978,0.1637,0.9822,0.1143,0.2222,-0.7692,2162.0251,50.37556715,16.28176408,0.00000000,
15:00:33:884,0.2142,0.1405,1.0066,0.1143,0.2222,-0.7692,2162.0251,50.37556715,16.28176408,0.00000000,
15:00:33:934,0.2142,0.1405,1.0066,0.1143,0.2222,-0.7692,2162.0251,50.37556715,16.28176408,0.00000000,
15:00:33:942,0.2142,0.1405,1.0066,0.5861,0.2516,-0.2141,2162.0251,50.37556715,16.28176408,0.00000000,
15:00:33:944,0.2142,0.1405,1.0066,0.5861,0.2516,-0.2141,2475.9675,50.37556715,16.28176408,0.00000000,
15:00:33:949,0.2266,0.1196,1.0276,0.5861,0.2516,-0.2141,2475.9675,50.37556715,16.28176408,0.00000000,
15:00:33:950,0.2196,0.1219,1.0097,0.5861,0.2516,-0.2141,2475.9675,50.37556715,16.28176408,0.00000000,
15:00:33:954,0.1737,0.1255,0.9891,0.5861,0.2516,-0.2141,2475.9675,50.37556715,16.28176408,0.00000000,
15:00:33:972,0.1571,0.1214,0.9886,0.5861,0.2516,-0.2141,2475.9675,50.37556715,16.28176408,0.00000000,
15:00:34:002,0.1571,0.1214,0.9886,0.5861,0.2516,-0.2141,2475.9675,50.37556715,16.28176408,0.00000000,
15:00:34:010,0.1571,0.1214,0.9886,0.2927,-0.1928,0.0277,2475.9675,50.37556715,16.28176408,0.00000000,
15:00:34:034,0.1370,0.0971,0.9938,0.2927,-0.1928,0.0277,2475.9675,50.37556715,16.28176408,0.00000000,
15:00:34:037,0.1449,0.0425,1.0030,0.2927,-0.1928,0.0277,2475.9675,50.37556715,16.28176408,0.00000000,
15:00:34:039,0.1707,0.0465,1.0808,0.2927,-0.1928,0.0277,2475.9675,50.37556715,16.28176408,0.00000000,
15:00:34:070,0.1707,0.0465,1.0808,0.2927,-0.1928,0.0277,2475.9675,50.37556715,16.28176408,0.00000000,
15:00:34:078,0.1707,0.0465,1.0808,-0.4993,-0.5406,0.1047,2475.9675,50.37556715,16.28176408,0.00000000,
15:00:34:101,0.1721,0.0931,1.1976,-0.4993,-0.5406,0.1047,2475.9675,50.37556715,16.28176408,0.00000000,
15:00:34:106,0.1832,0.1006,1.2673,-0.4993,-0.5406,0.1047,2475.9675,50.37556715,16.28176408,0.00000000,
15:00:34:109,0.1906,0.0684,1.2508,-0.4993,-0.5406,0.1047,2475.9675,50.37556715,16.28176408,0.00000000,
15:00:34:112,0.1906,0.0684,1.2508,-0.4993,-0.5406,0.1047,2697.0300,50.37556715,16.28176408,0.00000000,
15:00:34:115,0.1707,0.0510,1.1335,-0.4993,-0.5406,0.1047,2697.0300,50.37556715,16.28176408,0.00000000,
15:00:34:137,0.1707,0.0510,1.1335,-0.4993,-0.5406,0.1047,2697.0300,50.37556715,16.28176408,0.00000000,
15:00:34:146,0.1707,0.0510,1.1335,-0.1354,-0.6317,2.0084,2697.0300,50.37556715,16.28176408,0.00000000,
15:00:34:172,0.1655,0.0392,0.9709,-0.1354,-0.6317,2.0084,2697.0300,50.37556715,16.28176408,0.00000000,
15:00:34:175,0.1137,0.0325,0.8580,-0.1354,-0.6317,2.0084,2697.0300,50.37556715,16.28176408,0.00000000,
15:00:34:178,0.1311,0.0433,0.8307,-0.1354,-0.6317,2.0084,2697.0300,50.37556715,16.28176408,0.00000000,
15:00:34:205,0.1311,0.0433,0.8307,-0.1354,-0.6317,2.0084,2697.0300,50.37556715,16.28176408,0.00000000,
15:00:34:214,0.1311,0.0433,0.8307,0.0658,-1.1534,-0.1902,2697.0300,50.37556715,16.28176408,0.00000000,
15:00:34:238,0.1410,0.0436,0.8743,0.0658,-1.1534,-0.1902,2697.0300,50.37556715,16.28176408,0.00000000,
15:00:34:242,0.1716,0.0570,0.9651,0.0658,-1.1534,-0.1902,2697.0300,50.37556715,16.28176408,0.00000000,
15:00:34:245,0.1481,0.0404,1.0519,0.0658,-1.1534,-0.1902,2697.0300,50.37556715,16.28176408,0.00000000,
15:00:34:264,0.1481,0.0404,1.0519,0.0658,-1.1534,-0.1902,2860.9875,50.37556715,16.28176408,0.00000000,
15:00:34:268,0.1130,0.0554,1.0596,0.0658,-1.1534,-0.1902,2860.9875,50.37556715,16.28176408,0.00000000,
15:00:34:274,0.1130,0.0554,1.0596,0.0658,-1.1534,-0.1902,2860.9875,50.37556715,16.28176408,0.00000000,
15:00:34:281,0.1130,0.0554,1.0596,0.4446,-1.0839,-1.1004,2860.9875,50.37556715,16.28176408,0.00000000,
15:00:34:332,0.1025,0.0239,1.0361,0.4446,-1.0839,-1.1004,2860.9875,50.37556715,16.28176408,0.00000000,
15:00:34:336,0.0856,0.0143,0.9846,0.4446,-1.0839,-1.1004,2860.9875,50.37556715,16.28176408,0.00000000,
15:00:34:339,0.1110,0.0347,0.9535,0.4446,-1.0839,-1.1004,2860.9875,50.37556715,16.28176408,0.00000000,
15:00:34:341,0.1110,0.0347,0.9535,0.4446,-1.0839,-1.1004,2860.9875,50.37556715,16.28176408,0.00000000,
15:00:34:349,0.1110,0.0347,0.9535,0.1548,-1.3193,0.3215,2860.9875,50.37556715,16.28176408,0.00000000,
15:00:34:398,0.1235,0.0719,0.9446,0.1548,-1.3193,0.3215,2860.9875,50.37556715,16.28176408,0.00000000,
15:00:34:402,0.0905,0.1433,0.9165,0.1548,-1.3193,0.3215,2860.9875,50.37556715,16.28176408,0.00000000,
15:00:34:406,0.0551,0.1326,0.8894,0.1548,-1.3193,0.3215,2860.9875,50.37556715,16.28176408,0.00000000,
15:00:34:411,0.0551,0.1326,0.8894,0.1548,-1.3193,0.3215,2860.9875,50.37556715,16.28176408,0.00000000,
15:00:34:416,0.0551,0.1326,0.8894,0.2346,-1.0024,-0.5336,2860.9875,50.37556715,16.28176408,0.00000000,
15:00:34:424,0.0551,0.1326,0.8894,0.2346,-1.0024,-0.5336,3074.0176,50.37556715,16.28176408,0.00000000,
15:00:34:426,0.1594,0.0311,0.8927,0.2346,-1.0024,-0.5336,3074.0176,50.37556715,16.28176408,0.00000000,
15:00:34:427,0.1483,0.0465,0.8985,0.2346,-1.0024,-0.5336,3074.0176,50.37556715,16.28176408,0.00000000,
15:00:34:472,0.0970,0.0983,0.9010,0.2346,-1.0024,-0.5336,3074.0176,50.37556715,16.28176408,0.00000000,
15:00:34:474,0.0496,0.1325,0.9334,0.2346,-1.0024,-0.5336,3074.0176,50.37556715,16.28176408,0.00000000,
15:00:34:480,0.0496,0.1325,0.9334,0.2346,-1.0024,-0.5336,3074.0176,50.37556715,16.28176408,0.00000000,
15:00:34:484,0.0496,0.1325,0.9334,0.3439,-0.6860,-0.9742,3074.0176,50.37556715,16.28176408,0.00000000,
15:00:34:490,0.0412,0.1337,0.9618,0.3439,-0.6860,-0.9742,3074.0176,50.37556715,16.28176408,0.00000000,
15:00:34:544,0.0412,0.1337,0.9618,0.3439,-0.6860,-0.9742,3074.0176,50.37556715,16.28176408,0.00000000,
15:00:34:553,0.0412,0.1337,0.9618,-0.1085,-0.4854,-0.5224,3074.0176,50.37556715,16.28176408,0.00000000,
15:00:34:558,0.0617,0.1358,0.9364,-0.1085,-0.4854,-0.5224,3074.0176,50.37556715,16.28176408,0.00000000,
15:00:34:559,0.0502,0.1493,0.8969,-0.1085,-0.4854,-0.5224,3074.0176,50.37556715,16.28176408,0.00000000,
15:00:34:561,0.0342,0.1515,0.8893,-0.1085,-0.4854,-0.5224,3074.0176,50.37556715,16.28176408,0.00000000,
15:00:34:584,0.0342,0.1515,0.8893,-0.1085,-0.4854,-0.5224,43413.9766,50.37556715,16.28176408,0.00000000,
15:00:34:586,0.0485,0.1496,0.9024,-0.1085,-0.4854,-0.5224,43413.9766,50.37556715,16.28176408,0.00000000,
15:00:34:612,0.0485,0.1496,0.9024,-0.1085,-0.4854,-0.5224,43413.9766,50.37556715,16.28176408,0.00000000,
15:00:34:620,0.0485,0.1496,0.9024,-0.0969,-0.1809,-0.6801,43413.9766,50.37556715,16.28176408,0.00000000,
15:00:34:651,0.0672,0.1507,0.9433,-0.0969,-0.1809,-0.6801,43413.9766,50.37556715,16.28176408,0.00000000,
15:00:34:653,0.1010,0.1245,0.9717,-0.0969,-0.1809,-0.6801,43413.9766,50.37556715,16.28176408,0.00000000,
15:00:34:655,0.0912,0.1259,0.9867,-0.0969,-0.1809,-0.6801,43413.9766,50.37556715,16.28176408,0.00000000,
15:00:34:680,0.0912,0.1259,0.9867,-0.0969,-0.1809,-0.6801,43413.9766,50.37556715,16.28176408,0.00000000,
15:00:34:688,0.0912,0.1259,0.9867,0.3662,-0.2602,-0.2575,43413.9766,50.37556715,16.28176408,0.00000000,
15:00:34:718,0.0511,0.1218,1.0144,0.3662,-0.2602,-0.2575,43413.9766,50.37556715,16.28176408,0.00000000,
15:00:34:721,0.0190,0.1798,1.0436,0.3662,-0.2602,-0.2575,43413.9766,50.37556715,16.28176408,0.00000000,
15:00:34:724,0.0250,0.2051,1.0945,0.3662,-0.2602,-0.2575,43413.9766,50.37556715,16.28176408,0.00000000,
15:00:34:727,0.0378,0.1927,1.0925,0.3662,-0.2602,-0.2575,43413.9766,50.37556715,16.28176408,0.00000000,
15:00:34:744,0.0378,0.1927,1.0925,0.3662,-0.2602,-0.2575,79999.9922,50.37556715,16.28176408,0.00000000,
15:00:34:746,0.1163,0.1996,0.9985,0.3662,-0.2602,-0.2575,79999.9922,50.37556715,16.28176408,0.00000000,
15:00:34:748,0.1163,0.1996,0.9985,0.3662,-0.2602,-0.2575,79999.9922,50.37556715,16.28176408,0.00000000,
15:00:34:760,0.1163,0.1996,0.9985,-0.1846,-0.5521,0.6315,79999.9922,50.37556715,16.28176408,0.00000000,
15:00:34:762,0.0980,0.2313,0.9468,-0.1846,-0.5521,0.6315,79999.9922,50.37556715,16.28176408,0.00000000,
15:00:34:786,0.0827,0.2987,0.9114,-0.1846,-0.5521,0.6315,79999.9922,50.37556715,16.28176408,0.00000000,
15:00:34:808,0.0540,0.3531,0.7934,-0.1846,-0.5521,0.6315,79999.9922,50.37556715,16.28176408,0.00000000,
15:00:34:814,0.0540,0.3531,0.7934,-0.1846,-0.5521,0.6315,79999.9922,50.37556715,16.28176408,0.00000000,
15:00:34:823,0.0540,0.3531,0.7934,-0.1439,-0.4339,0.6237,79999.9922,50.37556715,16.28176408,0.00000000,
15:00:34:826,0.0906,0.3584,0.7761,-0.1439,-0.4339,0.6237,79999.9922,50.37556715,16.28176408,0.00000000,
15:00:34:857,0.1335,0.3483,0.8849,-0.1439,-0.4339,0.6237,79999.9922,50.37556715,16.28176408,0.00000000,
15:00:34:876,0.1403,0.3347,1.0008,-0.1439,-0.4339,0.6237,79999.9922,50.37556715,16.28176408,0.00000000,
15:00:34:883,0.1403,0.3347,1.0008,-0.1439,-0.4339,0.6237,79999.9922,50.37556715,16.28176408,0.00000000,
15:00:34:891,0.1403,0.3347,1.0008,-0.1187,0.8097,-1.1517,79999.9922,50.37556715,16.28176408,0.00000000,
15:00:34:893,0.1332,0.2975,1.0027,-0.1187,0.8097,-1.1517,79999.9922,50.37556715,16.28176408,0.00000000,
15:00:34:909,0.1252,0.2950,0.9876,-0.1187,0.8097,-1.1517,79999.9922,50.37556715,16.28176408,0.00000000,
15:00:34:941,0.1069,0.3234,0.9480,-0.1187,0.8097,-1.1517,79999.9922,50.37556715,16.28176408,0.00000000,
15:00:34:951,0.1069,0.3234,0.9480,-0.1187,0.8097,-1.1517,79999.9922,50.37556715,16.28176408,0.00000000,
15:00:34:962,0.1069,0.3234,0.9480,0.3961,0.5021,0.1543,79999.9922,50.37556715,16.28176408,0.00000000,
15:00:34:965,0.1436,0.3536,0.9226,0.3961,0.5021,0.1543,79999.9922,50.37556715,16.28176408,0.00000000,
15:00:34:989,0.1664,0.3708,0.9130,0.3961,0.5021,0.1543,79999.9922,50.37556715,16.28176408,0.00000000,
15:00:35:008,0.1646,0.3644,0.9133,0.3961,0.5021,0.1543,79999.9922,50.37556715,16.28176408,0.00000000,
15:00:35:020,0.1646,0.3644,0.9133,0.3961,0.5021,0.1543,79999.9922,50.37556715,16.28176408,0.00000000,
15:00:35:026,0.1312,0.3490,0.9109,0.3961,0.5021,0.1543,79999.9922,50.37556715,16.28176408,0.00000000,
15:00:35:028,0.1312,0.3490,0.9109,0.4794,0.4223,-0.0260,79999.9922,50.37556715,16.28176408,0.00000000,
15:00:35:040,0.1164,0.3351,0.9200,0.4794,0.4223,-0.0260,79999.9922,50.37556715,16.28176408,0.00000000,
15:00:35:056,0.1507,0.3029,0.9071,0.4794,0.4223,-0.0260,79999.9922,50.37556715,16.28176408,0.00000000,
15:00:35:087,0.1507,0.3029,0.9071,0.4794,0.4223,-0.0260,79999.9922,50.37556715,16.28176408,0.00000000,
15:00:35:090,0.1151,0.3144,0.8681,0.4794,0.4223,-0.0260,79999.9922,50.37556715,16.28176408,0.00000000,
15:00:35:094,0.1151,0.3144,0.8681,0.6775,0.6872,-0.3326,79999.9922,50.37556715,16.28176408,0.00000000,
15:00:35:106,0.0950,0.3381,0.8490,0.6775,0.6872,-0.3326,79999.9922,50.37556715,16.28176408,0.00000000,
15:00:35:124,0.1068,0.2860,0.8404,0.6775,0.6872,-0.3326,79999.9922,50.37556715,16.28176408,0.00000000,
15:00:35:143,0.1056,0.2375,0.8573,0.6775,0.6872,-0.3326,79999.9922,50.37556715,16.28176408,0.00000000,
15:00:35:154,0.1056,0.2375,0.8573,0.6775,0.6872,-0.3326,79999.9922,50.37556715,16.28176408,0.00000000,
15:00:35:162,0.1056,0.2375,0.8573,0.7579,0.6561,-0.7017,79999.9922,50.37556715,16.28176408,0.00000000,
15:00:35:173,0.1314,0.2263,0.9015,0.7579,0.6561,-0.7017,79999.9922,50.37556715,16.28176408,0.00000000,
15:00:35:189,0.0246,0.1842,0.9705,0.7579,0.6561,-0.7017,79999.9922,50.37556715,16.28176408,0.00000000,
15:00:35:208,-0.0740,0.1778,0.9988,0.7579,0.6561,-0.7017,79999.9922,50.37556715,16.28176408,0.00000000,
15:00:35:221,-0.0740,0.1778,0.9988,0.7579,0.6561,-0.7017,79999.9922,50.37556715,16.28176408,0.00000000,
15:00:35:230,-0.0740,0.1778,0.9988,1.2807,0.5531,-0.8917,79999.9922,50.37556715,16.28176408,0.00000000,
15:00:35:240,-0.0796,0.1014,0.9912,1.2807,0.5531,-0.8917,79999.9922,50.37556715,16.28176408,0.00000000,
15:00:35:256,-0.0031,0.0266,0.9685,1.2807,0.5531,-0.8917,79999.9922,50.37556715,16.28176408,0.00000000,
15:00:35:273,0.0353,0.0262,1.0131,1.2807,0.5531,-0.8917,79999.9922,50.37556715,16.28176408,0.00000000,
15:00:35:289,0.0353,0.0262,1.0131,1.2807,0.5531,-0.8917,79999.9922,50.37556715,16.28176408,0.00000000,
15:00:35:291,-0.0301,0.0739,1.0540,1.2807,0.5531,-0.8917,79999.9922,50.37556715,16.28176408,0.00000000,
15:00:35:297,-0.0301,0.0739,1.0540,-0.2615,-0.0167,0.1795,79999.9922,50.37556715,16.28176408,0.00000000,
15:00:35:324,-0.0599,0.0574,1.1318,-0.2615,-0.0167,0.1795,79999.9922,50.37556715,16.28176408,0.00000000,
15:00:35:340,0.0228,0.0010,1.0818,-0.2615,-0.0167,0.1795,79999.9922,50.37556715,16.28176408,0.00000000,
15:00:35:357,0.0228,0.0010,1.0818,-0.2615,-0.0167,0.1795,79999.9922,50.37556715,16.28176408,0.00000000,
15:00:35:360,0.0159,0.0360,1.0204,-0.2615,-0.0167,0.1795,79999.9922,50.37556715,16.28176408,0.00000000,
15:00:35:368,0.0159,0.0360,1.0204,-0.1842,-1.1112,0.5801,79999.9922,50.37556715,16.28176408,0.00000000,
15:00:35:374,-0.0009,0.1100,0.9729,-0.1842,-1.1112,0.5801,79999.9922,50.37556715,16.28176408,0.00000000,
15:00:35:408,-0.0754,0.1740,0.9368,-0.1842,-1.1112,0.5801,79999.9922,50.37556715,16.28176408,0.00000000,
15:00:35:424,-0.0745,0.1679,0.9371,-0.1842,-1.1112,0.5801,79999.9922,50.37556715,16.28176408,0.00000000,
15:00:35:426,-0.0745,0.1679,0.9371,-0.1842,-1.1112,0.5801,79999.9922,50.37556715,16.28176408,0.00000000,
15:00:35:435,-0.0745,0.1679,0.9371,-0.0578,-1.3535,0.7539,79999.9922,50.37556715,16.28176408,0.00000000,
15:00:35:441,-0.0776,0.1776,0.9677,-0.0578,-1.3535,0.7539,79999.9922,50.37556715,16.28176408,0.00000000,
15:00:35:472,-0.0743,0.1986,0.9539,-0.0578,-1.3535,0.7539,79999.9922,50.37556715,16.28176408,0.00000000,
15:00:35:491,-0.0565,0.1723,0.9749,-0.0578,-1.3535,0.7539,79999.9922,50.37556715,16.28176408,0.00000000,
15:00:35:493,-0.0565,0.1723,0.9749,-0.0578,-1.3535,0.7539,79999.9922,50.37556715,16.28176408,0.00000000,
15:00:35:503,-0.0565,0.1723,0.9749,-0.6243,0.3066,-0.2786,79999.9922,50.37556715,16.28176408,0.00000000,
15:00:35:511,-0.0129,0.1132,1.0461,-0.6243,0.3066,-0.2786,79999.9922,50.37556715,16.28176408,0.00000000,
15:00:35:524,0.0007,0.1098,1.1206,-0.6243,0.3066,-0.2786,79999.9922,50.37556715,16.28176408,0.00000000,
15:00:35:543,0.0007,0.1098,1.1206,-0.6243,0.3066,-0.2786,65052.9922,50.37556715,16.28176408,0.00000000,
15:00:35:544,-0.0125,0.1102,1.2440,-0.6243,0.3066,-0.2786,65052.9922,50.37556715,16.28176408,0.00000000,
15:00:35:560,-0.0125,0.1102,1.2440,-0.6243,0.3066,-0.2786,65052.9922,50.37556715,16.28176408,0.00000000,
15:00:35:569,-0.0125,0.1102,1.2440,-0.0596,0.7100,0.0593,65052.9922,50.37556715,16.28176408,0.00000000,
15:00:35:572,0.0251,0.0588,1.2661,-0.0596,0.7100,0.0593,65052.9922,50.37556715,16.28176408,0.00000000,
15:00:35:589,0.0642,0.0402,1.1832,-0.0596,0.7100,0.0593,65052.9922,50.37556715,16.28176408,0.00000000,
15:00:35:607,0.0546,0.0469,1.0649,-0.0596,0.7100,0.0593,65052.9922,50.37556715,16.28176408,0.00000000,
15:00:35:628,0.0546,0.0469,1.0649,-0.0596,0.7100,0.0593,65052.9922,50.37556715,16.28176408,0.00000000,
15:00:35:637,0.0546,0.0469,1.0649,0.6664,0.1146,1.9861,65052.9922,50.37556715,16.28176408,0.00000000,
15:00:35:640,0.0619,0.0524,0.9963,0.6664,0.1146,1.9861,65052.9922,50.37556715,16.28176408,0.00000000,
15:00:35:655,0.0479,0.0396,0.9785,0.6664,0.1146,1.9861,65052.9922,50.37556715,16.28176408,0.00000000,
15:00:35:674,-0.0093,0.0902,0.9912,0.6664,0.1146,1.9861,65052.9922,50.37556715,16.28176408,0.00000000,
15:00:35:692,-0.0400,0.1438,0.9712,0.6664,0.1146,1.9861,65052.9922,50.37556715,16.28176408,0.00000000,
15:00:35:696,-0.0400,0.1438,0.9712,0.6664,0.1146,1.9861,65052.9922,50.37556715,16.28176408,0.00000000,
15:00:35:705,-0.0400,0.1438,0.9712,0.6664,0.1146,1.9861,42214.0273,50.37556715,16.28176408,0.00000000,
15:00:35:707,-0.0400,0.1438,0.9712,1.0711,-0.3539,0.4525,42214.0273,50.37556715,16.28176408,0.00000000,
15:00:35:723,-0.0873,0.1652,0.9399,1.0711,-0.3539,0.4525,42214.0273,50.37556715,16.28176408,0.00000000,
15:00:35:739,-0.1060,0.0958,0.9267,1.0711,-0.3539,0.4525,42214.0273,50.37556715,16.28176408,0.00000000,
15:00:35:756,-0.0908,0.0785,0.9555,1.0711,-0.3539,0.4525,42214.0273,50.37556715,16.28176408,0.00000000,
15:00:35:764,-0.0908,0.0785,0.9555,1.0711,-0.3539,0.4525,42214.0273,50.37556715,16.28176408,0.00000000,
15:00:35:773,-0.0908,0.0785,0.9555,0.3865,0.2743,-0.3528,42214.0273,50.37556715,16.28176408,0.00000000,
15:00:35:790,-0.0878,0.0376,1.0246,0.3865,0.2743,-0.3528,42214.0273,50.37556715,16.28176408,0.00000000,
15:00:35:806,-0.0985,0.0320,1.0776,0.3865,0.2743,-0.3528,42214.0273,50.37556715,16.28176408,0.00000000,
15:00:35:822,-0.1432,0.0790,1.1230,0.3865,0.2743,-0.3528,42214.0273,50.37556715,16.28176408,0.00000000,
15:00:35:832,-0.1432,0.0790,1.1230,0.3865,0.2743,-0.3528,42214.0273,50.37556715,16.28176408,0.00000000,
15:00:35:841,-0.1432,0.0790,1.1230,-0.4839,0.0402,-0.4278,42214.0273,50.37556715,16.28176408,0.00000000,
15:00:35:844,-0.0792,0.0272,1.1284,-0.4839,0.0402,-0.4278,42214.0273,50.37556715,16.28176408,0.00000000,
15:00:35:863,-0.0792,0.0272,1.1284,-0.4839,0.0402,-0.4278,39755.0039,50.37556715,16.28176408,0.00000000,
15:00:35:865,-0.0593,0.0630,1.0329,-0.4839,0.0402,-0.4278,39755.0039,50.37556715,16.28176408,0.00000000,
15:00:35:890,-0.0867,0.1364,0.9665,-0.4839,0.0402,-0.4278,39755.0039,50.37556715,16.28176408,0.00000000,
15:00:35:903,-0.0867,0.1364,0.9665,-0.4839,0.0402,-0.4278,39755.0039,50.37556715,16.28176408,0.00000000,
15:00:35:908,-0.0867,0.1364,0.9665,-0.9184,-0.6402,0.9105,39755.0039,50.37556715,16.28176408,0.00000000,
15:00:35:910,-0.1595,0.1318,0.9079,-0.9184,-0.6402,0.9105,39755.0039,50.37556715,16.28176408,0.00000000,
15:00:35:938,-0.0308,0.0678,0.9091,-0.9184,-0.6402,0.9105,39755.0039,50.37556715,16.28176408,0.00000000,
15:00:35:962,-0.0468,0.0721,0.9410,-0.9184,-0.6402,0.9105,39755.0039,50.37556715,16.28176408,0.00000000,
15:00:35:966,-0.0468,0.0721,0.9410,-0.9184,-0.6402,0.9105,39755.0039,50.37556715,16.28176408,0.00000000,
15:00:35:975,-0.0817,0.1138,0.9933,-0.9184,-0.6402,0.9105,39755.0039,50.37556715,16.28176408,0.00000000,
15:00:35:976,-0.0817,0.1138,0.9933,-0.6608,-0.1805,-0.3997,39755.0039,50.37556715,16.28176408,0.00000000,
15:00:35:989,-0.0886,0.1257,1.0301,-0.6608,-0.1805,-0.3997,39755.0039,50.37556715,16.28176408,0.00000000,
15:00:36:022,-0.0941,0.1497,1.0198,-0.6608,-0.1805,-0.3997,39755.0039,50.37556715,16.28176408,0.00000000,
15:00:36:025,-0.0941,0.1497,1.0198,-0.6608,-0.1805,-0.3997,43101.9922,50.37556715,16.28176408,0.00000000,
15:00:36:036,-0.0941,0.1497,1.0198,-0.6608,-0.1805,-0.3997,43101.9922,50.37556715,16.28176408,0.00000000,
15:00:36:039,-0.0812,0.1491,1.0117,-0.6608,-0.1805,-0.3997,43101.9922,50.37556715,16.28176408,0.00000000,
15:00:36:044,-0.0812,0.1491,1.0117,0.0156,-0.5302,-0.3514,43101.9922,50.37556715,16.28176408,0.00000000,
15:00:36:057,-0.0672,0.1520,1.0093,0.0156,-0.5302,-0.3514,43101.9922,50.37556715,16.28176408,0.00000000,
15:00:36:074,-0.0613,0.1654,1.0004,0.0156,-0.5302,-0.3514,43101.9922,50.37556715,16.28176408,0.00000000,
15:00:36:102,-0.0613,0.1654,1.0004,0.0156,-0.5302,-0.3514,43101.9922,50.37556715,16.28176408,0.00000000,
15:00:36:107,-0.0830,0.1685,0.9613,0.0156,-0.5302,-0.3514,43101.9922,50.37556715,16.28176408,0.00000000,
15:00:36:112,-0.0830,0.1685,0.9613,-0.0764,-0.2782,0.2391,43101.9922,50.37556715,16.28176408,0.00000000,
15:00:36:124,-0.1050,0.1797,0.9387,-0.0764,-0.2782,0.2391,43101.9922,50.37556715,16.28176408,0.00000000,
15:00:36:140,-0.1091,0.2062,0.9342,-0.0764,-0.2782,0.2391,43101.9922,50.37556715,16.28176408,0.00000000,
15:00:36:171,-0.1091,0.2062,0.9342,-0.0764,-0.2782,0.2391,43101.9922,50.37556715,16.28176408,0.00000000,
15:00:36:173,-0.0939,0.2173,0.9202,-0.0764,-0.2782,0.2391,43101.9922,50.37556715,16.28176408,0.00000000,
15:00:36:179,-0.0939,0.2173,0.9202,-0.0340,-0.3645,-0.1062,43101.9922,50.37556715,16.28176408,0.00000000,
15:00:36:186,-0.0939,0.2173,0.9202,-0.0340,-0.3645,-0.1062,31297.9961,50.37556715,16.28176408,0.00000000,
15:00:36:188,-0.0739,0.2285,0.9252,-0.0340,-0.3645,-0.1062,31297.9961,50.37556715,16.28176408,0.00000000,
15:00:36:208,-0.0669,0.2453,0.9427,-0.0340,-0.3645,-0.1062,31297.9961,50.37556715,16.28176408,0.00000000,
15:00:36:230,-0.0591,0.2549,0.9592,-0.0340,-0.3645,-0.1062,31297.9961,50.37556715,16.28176408,0.00000000,
15:00:36:238,-0.0591,0.2549,0.9592,-0.0340,-0.3645,-0.1062,31297.9961,50.37556715,16.28176408,0.00000000,
15:00:36:248,-0.0591,0.2549,0.9592,-0.2719,-0.0836,-0.4732,31297.9961,50.37556715,16.28176408,0.00000000,
15:00:36:257,-0.0394,0.2733,0.9763,-0.2719,-0.0836,-0.4732,31297.9961,50.37556715,16.28176408,0.00000000,
15:00:36:275,-0.0214,0.2774,0.9974,-0.2719,-0.0836,-0.4732,31297.9961,50.37556715,16.28176408,0.00000000,
15:00:36:289,-0.0236,0.2743,1.0386,-0.2719,-0.0836,-0.4732,31297.9961,50.37556715,16.28176408,0.00000000,
15:00:36:306,-0.0236,0.2743,1.0386,-0.2719,-0.0836,-0.4732,31297.9961,50.37556715,16.28176408,0.00000000,
15:00:36:310,-0.0018,0.2655,1.0669,-0.2719,-0.0836,-0.4732,31297.9961,50.37556715,16.28176408,0.00000000,
15:00:36:315,-0.0018,0.2655,1.0669,-0.1614,0.2480,-0.1265,31297.9961,50.37556715,16.28176408,0.00000000,
15:00:36:338,0.0266,0.2678,1.1135,-0.1614,0.2480,-0.1265,31297.9961,50.37556715,16.28176408,0.00000000,
15:00:36:343,0.0266,0.2678,1.1135,-0.1614,0.2480,-0.1265,30267.0020,50.37556715,16.28176408,0.00000000,
15:00:36:356,0.0506,0.2755,1.1416,-0.1614,0.2480,-0.1265,30267.0020,50.37556715,16.28176408,0.00000000,
15:00:36:373,0.0646,0.2930,1.1420,-0.1614,0.2480,-0.1265,30267.0020,50.37556715,16.28176408,0.00000000,
15:00:36:375,0.0646,0.2930,1.1420,-0.1614,0.2480,-0.1265,30267.0020,50.37556715,16.28176408,0.00000000,
15:00:36:383,0.0646,0.2930,1.1420,0.0376,-0.0172,0.6954,30267.0020,50.37556715,16.28176408,0.00000000,
15:00:36:391,0.0415,0.3329,1.1077,0.0376,-0.0172,0.6954,30267.0020,50.37556715,16.28176408,0.00000000,
15:00:36:423,0.0166,0.3669,1.0701,0.0376,-0.0172,0.6954,30267.0020,50.37556715,16.28176408,0.00000000,
15:00:36:446,0.0166,0.3669,1.0701,0.0376,-0.0172,0.6954,30267.0020,50.37556715,16.28176408,0.00000000,
15:00:36:451,0.0734,0.3529,0.9654,0.0376,-0.0172,0.6954,30267.0020,50.37556715,16.28176408,0.00000000,
15:00:36:453,0.0734,0.3529,0.9654,0.3867,-0.7375,1.7075,30267.0020,50.37556715,16.28176408,0.00000000,
15:00:36:457,0.1512,0.3410,0.8668,0.3867,-0.7375,1.7075,30267.0020,50.37556715,16.28176408,0.00000000,
15:00:36:488,0.1386,0.3698,0.7950,0.3867,-0.7375,1.7075,30267.0020,50.37556715,16.28176408,0.00000000,
15:00:36:503,0.0716,0.3941,0.7538,0.3867,-0.7375,1.7075,30267.0020,50.37556715,16.28176408,0.00000000,
15:00:36:504,0.0716,0.3941,0.7538,0.3867,-0.7375,1.7075,26224.0215,50.37556715,16.28176408,0.00000000,
15:00:36:509,0.0716,0.3941,0.7538,0.3867,-0.7375,1.7075,26224.0215,50.37556715,16.28176408,0.00000000,
15:00:36:518,0.0716,0.3941,0.7538,0.4015,-0.7529,0.5492,26224.0215,50.37556715,16.28176408,0.00000000,
15:00:36:523,0.0119,0.4901,0.6873,0.4015,-0.7529,0.5492,26224.0215,50.37556715,16.28176408,0.00000000,
15:00:36:540,0.0582,0.4294,0.7024,0.4015,-0.7529,0.5492,26224.0215,50.37556715,16.28176408,0.00000000,
15:00:36:561,0.0645,0.4131,0.6914,0.4015,-0.7529,0.5492,26224.0215,50.37556715,16.28176408,0.00000000,
15:00:36:577,0.0645,0.4131,0.6914,0.4015,-0.7529,0.5492,26224.0215,50.37556715,16.28176408,0.00000000,
15:00:36:587,0.0645,0.4131,0.6914,0.5794,-0.1365,-1.6142,26224.0215,50.37556715,16.28176408,0.00000000,
15:00:36:589,0.0477,0.4242,0.7159,0.5794,-0.1365,-1.6142,26224.0215,50.37556715,16.28176408,0.00000000,
15:00:36:604,0.0590,0.4206,0.7844,0.5794,-0.1365,-1.6142,26224.0215,50.37556715,16.28176408,0.00000000,
15:00:36:630,0.0806,0.4043,0.8491,0.5794,-0.1365,-1.6142,26224.0215,50.37556715,16.28176408,0.00000000,
15:00:36:647,0.0806,0.4043,0.8491,0.5794,-0.1365,-1.6142,26224.0215,50.37556715,16.28176408,0.00000000,
15:00:36:653,0.0806,0.4043,0.8491,0.4827,0.4264,-2.0259,26224.0215,50.37556715,16.28176408,0.00000000,
15:00:36:657,0.0831,0.4022,0.9265,0.4827,0.4264,-2.0259,26224.0215,50.37556715,16.28176408,0.00000000,
15:00:36:664,0.0831,0.4022,0.9265,0.4827,0.4264,-2.0259,20321.0117,50.37556715,16.28176408,0.00000000,
15:00:36:673,0.0793,0.4014,1.0110,0.4827,0.4264,-2.0259,20321.0117,50.37556715,16.28176408,0.00000000,
15:00:36:688,0.0911,0.3734,0.9960,0.4827,0.4264,-2.0259,20321.0117,50.37556715,16.28176408,0.00000000,
15:00:36:710,0.0770,0.3730,0.9873,0.4827,0.4264,-2.0259,20321.0117,50.37556715,16.28176408,0.00000000,
15:00:36:714,0.0770,0.3730,0.9873,0.4827,0.4264,-2.0259,20321.0117,50.37556715,16.28176408,0.00000000,
15:00:36:723,0.0770,0.3730,0.9873,0.7012,0.4729,-0.4027,20321.0117,50.37556715,16.28176408,0.00000000,
15:00:36:739,0.0664,0.3653,0.9275,0.7012,0.4729,-0.4027,20321.0117,50.37556715,16.28176408,0.00000000,
15:00:36:755,0.0748,0.3395,0.8689,0.7012,0.4729,-0.4027,20321.0117,50.37556715,16.28176408,0.00000000,
15:00:36:780,0.0748,0.3395,0.8689,0.7012,0.4729,-0.4027,20321.0117,50.37556715,16.28176408,0.00000000,
15:00:36:787,0.0737,0.3279,0.8228,0.7012,0.4729,-0.4027,20321.0117,50.37556715,16.28176408,0.00000000,
15:00:36:789,0.0737,0.3279,0.8228,0.7241,0.3504,0.5267,20321.0117,50.37556715,16.28176408,0.00000000,
15:00:36:804,0.0501,0.3164,0.7849,0.7241,0.3504,0.5267,20321.0117,50.37556715,16.28176408,0.00000000,
15:00:36:819,0.0421,0.2941,0.7879,0.7241,0.3504,0.5267,20321.0117,50.37556715,16.28176408,0.00000000,
15:00:36:823,0.0421,0.2941,0.7879,0.7241,0.3504,0.5267,22450.9727,50.37556715,16.28176408,0.00000000,
15:00:36:837,0.0365,0.2515,0.8214,0.7241,0.3504,0.5267,22450.9727,50.37556715,16.28176408,0.00000000,
15:00:36:850,0.0365,0.2515,0.8214,0.7241,0.3504,0.5267,22450.9727,50.37556715,16.28176408,0.00000000,
15:00:36:857,0.0365,0.2515,0.8214,0.6105,0.6259,-1.0437,22450.9727,50.37556715,16.28176408,0.00000000,
15:00:36:872,0.0372,0.2099,0.7981,0.6105,0.6259,-1.0437,22450.9727,50.37556715,16.28176408,0.00000000,
15:00:36:888,0.0467,0.1952,0.8212,0.6105,0.6259,-1.0437,22450.9727,50.37556715,16.28176408,0.00000000,
15:00:36:903,0.0758,0.1641,0.9006,0.6105,0.6259,-1.0437,22450.9727,50.37556715,16.28176408,0.00000000,
15:00:36:916,0.0758,0.1641,0.9006,0.6105,0.6259,-1.0437,22450.9727,50.37556715,16.28176408,0.00000000,
15:00:36:921,0.0911,0.1345,0.9848,0.6105,0.6259,-1.0437,22450.9727,50.37556715,16.28176408,0.00000000,
15:00:36:926,0.0911,0.1345,0.9848,0.3580,0.9518,-1.5000,22450.9727,50.37556715,16.28176408,0.00000000,
15:00:36:960,0.0805,0.1149,1.0498,0.3580,0.9518,-1.5000,22450.9727,50.37556715,16.28176408,0.00000000,
15:00:36:972,0.1032,0.1021,1.0960,0.3580,0.9518,-1.5000,22450.9727,50.37557349,16.28175148,0.36000001,
15:00:36:984,0.1032,0.1021,1.0960,0.3580,0.9518,-1.5000,35361.0234,50.37557349,16.28175148,0.36000001,
15:00:36:986,0.1032,0.1021,1.0960,0.3580,0.9518,-1.5000,35361.0234,50.37557349,16.28175148,0.36000001,
15:00:36:989,0.1124,0.0858,1.0794,0.3580,0.9518,-1.5000,35361.0234,50.37557349,16.28175148,0.36000001,
15:00:36:993,0.1124,0.0858,1.0794,0.4570,0.6685,-0.4569,35361.0234,50.37557349,16.28175148,0.36000001,
15:00:37:020,0.0897,0.0684,1.0248,0.4570,0.6685,-0.4569,35361.0234,50.37557349,16.28175148,0.36000001,
15:00:37:030,0.1066,0.0661,0.9992,0.4570,0.6685,-0.4569,35361.0234,50.37557349,16.28175148,0.36000001,
15:00:37:052,0.1066,0.0661,0.9992,0.4570,0.6685,-0.4569,35361.0234,50.37557349,16.28175148,0.36000001,
15:00:37:055,0.1394,0.0622,0.9949,0.4570,0.6685,-0.4569,35361.0234,50.37557349,16.28175148,0.36000001,
15:00:37:060,0.1394,0.0622,0.9949,0.4282,0.3383,1.0022,35361.0234,50.37557349,16.28175148,0.36000001,
15:00:37:070,0.1266,0.0563,1.0076,0.4282,0.3383,1.0022,35361.0234,50.37557349,16.28175148,0.36000001,
15:00:37:091,0.1138,0.0389,1.0553,0.4282,0.3383,1.0022,35361.0234,50.37557349,16.28175148,0.36000001,
15:00:37:121,0.1138,0.0389,1.0553,0.4282,0.3383,1.0022,35361.0234,50.37557349,16.28175148,0.36000001,
15:00:37:122,0.1190,0.0244,1.0974,0.4282,0.3383,1.0022,35361.0234,50.37557349,16.28175148,0.36000001,
15:00:37:129,0.1190,0.0244,1.0974,0.4551,0.4587,0.2463,35361.0234,50.37557349,16.28175148,0.36000001,
15:00:37:138,0.1148,0.0226,1.1232,0.4551,0.4587,0.2463,35361.0234,50.37557349,16.28175148,0.36000001,
15:00:37:144,0.1148,0.0226,1.1232,0.4551,0.4587,0.2463,64862.9805,50.37557349,16.28175148,0.36000001,
15:00:37:155,0.1029,0.0207,1.1227,0.4551,0.4587,0.2463,64862.9805,50.37557349,16.28175148,0.36000001,
15:00:37:186,0.0944,0.0150,1.0906,0.4551,0.4587,0.2463,64862.9805,50.37557349,16.28175148,0.36000001,
15:00:37:189,0.0944,0.0150,1.0906,0.4551,0.4587,0.2463,64862.9805,50.37557349,16.28175148,0.36000001,
15:00:37:197,0.0944,0.0150,1.0906,0.4225,0.2183,0.9106,64862.9805,50.37557349,16.28175148,0.36000001,
15:00:37:204,0.0845,0.0181,1.0578,0.4225,0.2183,0.9106,64862.9805,50.37557349,16.28175148,0.36000001,
15:00:37:222,0.0640,0.0226,1.0520,0.4225,0.2183,0.9106,64862.9805,50.37557349,16.28175148,0.36000001,
15:00:37:239,0.0531,0.0241,1.0622,0.4225,0.2183,0.9106,64862.9805,50.37557349,16.28175148,0.36000001,
15:00:37:255,0.0531,0.0241,1.0622,0.4225,0.2183,0.9106,64862.9805,50.37557349,16.28175148,0.36000001,
15:00:37:264,0.0531,0.0241,1.0622,0.2783,-0.0393,0.9105,64862.9805,50.37557349,16.28175148,0.36000001,
15:00:37:272,0.0485,0.0275,1.0619,0.2783,-0.0393,0.9105,64862.9805,50.37557349,16.28175148,0.36000001,
15:00:37:289,0.0455,0.0334,1.0581,0.2783,-0.0393,0.9105,64862.9805,50.37557349,16.28175148,0.36000001,
15:00:37:303,0.0529,0.0394,1.0486,0.2783,-0.0393,0.9105,64862.9805,50.37557349,16.28175148,0.36000001,
15:00:37:305,0.0529,0.0394,1.0486,0.2783,-0.0393,0.9105,79999.9922,50.37557349,16.28175148,0.36000001,
15:00:37:324,0.0529,0.0394,1.0486,0.2783,-0.0393,0.9105,79999.9922,50.37557349,16.28175148,0.36000001,
15:00:37:332,0.0529,0.0394,1.0486,-0.0286,-0.1572,0.5141,79999.9922,50.37557349,16.28175148,0.36000001,
15:00:37:336,0.0612,0.0453,1.0422,-0.0286,-0.1572,0.5141,79999.9922,50.37557349,16.28175148,0.36000001,
15:00:37:354,0.0677,0.0507,1.0476,-0.0286,-0.1572,0.5141,79999.9922,50.37557349,16.28175148,0.36000001,
15:00:37:371,0.0698,0.0512,1.0616,-0.0286,-0.1572,0.5141,79999.9922,50.37557349,16.28175148,0.36000001,
15:00:37:388,0.0707,0.0579,1.0817,-0.0286,-0.1572,0.5141,79999.9922,50.37557349,16.28175148,0.36000001,
15:00:37:392,0.0707,0.0579,1.0817,-0.0286,-0.1572,0.5141,79999.9922,50.37557349,16.28175148,0.36000001,
15:00:37:400,0.0707,0.0579,1.0817,-0.0406,-0.3531,0.3959,79999.9922,50.37557349,16.28175148,0.36000001,
15:00:37:419,0.0739,0.0685,1.0761,-0.0406,-0.3531,0.3959,79999.9922,50.37557349,16.28175148,0.36000001,
15:00:37:430,0.0790,0.0866,1.0828,-0.0406,-0.3531,0.3959,79999.9922,50.37557349,16.28175148,0.36000001,
15:00:37:454,0.0939,0.0985,1.0511,-0.0406,-0.3531,0.3959,79999.9922,50.37557349,16.28175148,0.36000001,
15:00:37:460,0.0939,0.0985,1.0511,-0.0406,-0.3531,0.3959,79999.9922,50.37557349,16.28175148,0.36000001,
15:00:37:464,0.0939,0.0985,1.0511,-0.0406,-0.3531,0.3959,48238.0000,50.37557349,16.28175148,0.36000001,
15:00:37:470,0.0939,0.0985,1.0511,0.0757,-0.8314,0.5815,48238.0000,50.37557349,16.28175148,0.36000001,
15:00:37:473,0.0797,0.1260,0.9928,0.0757,-0.8314,0.5815,48238.0000,50.37557349,16.28175148,0.36000001,
15:00:37:503,0.0747,0.1600,0.9617,0.0757,-0.8314,0.5815,48238.0000,50.37557349,16.28175148,0.36000001,
15:00:37:522,0.0841,0.1839,0.9549,0.0757,-0.8314,0.5815,48238.0000,50.37557349,16.28175148,0.36000001,
15:00:37:530,0.0841,0.1839,0.9549,0.0757,-0.8314,0.5815,48238.0000,50.37557349,16.28175148,0.36000001,
15:00:37:534,0.0841,0.1839,0.9549,0.2087,-0.9273,0.4769,48238.0000,50.37557349,16.28175148,0.36000001,
15:00:37:538,0.0651,0.1925,0.9039,0.2087,-0.9273,0.4769,48238.0000,50.37557349,16.28175148,0.36000001,
15:00:37:572,0.0452,0.2056,0.8699,0.2087,-0.9273,0.4769,48238.0000,50.37557349,16.28175148,0.36000001,
15:00:37:588,0.0355,0.2180,0.8774,0.2087,-0.9273,0.4769,48238.0000,50.37557349,16.28175148,0.36000001,
15:00:37:595,0.0355,0.2180,0.8774,0.2087,-0.9273,0.4769,48238.0000,50.37557349,16.28175148,0.36000001,
15:00:37:603,0.0355,0.2180,0.8774,0.1800,-0.2980,-0.4997,48238.0000,50.37557349,16.28175148,0.36000001,
15:00:37:606,0.0474,0.2170,0.9033,0.1800,-0.2980,-0.4997,48238.0000,50.37557349,16.28175148,0.36000001,
15:00:37:624,0.0474,0.2170,0.9033,0.1800,-0.2980,-0.4997,37424.0273,50.37557349,16.28175148,0.36000001,
15:00:37:626,0.0450,0.2077,0.9282,0.1800,-0.2980,-0.4997,37424.0273,50.37557349,16.28175148,0.36000001,
15:00:37:653,0.0409,0.2079,0.9526,0.1800,-0.2980,-0.4997,37424.0273,50.37557349,16.28175148,0.36000001,
15:00:37:663,0.0409,0.2079,0.9526,0.1800,-0.2980,-0.4997,37424.0273,50.37557349,16.28175148,0.36000001,
15:00:37:672,0.0409,0.2079,0.9526,-0.0782,0.0684,-0.9395,37424.0273,50.37557349,16.28175148,0.36000001,
15:00:37:675,0.0410,0.2072,0.9833,-0.0782,0.0684,-0.9395,37424.0273,50.37557349,16.28175148,0.36000001,
15:00:37:688,0.0419,0.2004,0.9980,-0.0782,0.0684,-0.9395,37424.0273,50.37557349,16.28175148,0.36000001,
15:00:37:721,0.0441,0.2023,0.9829,-0.0782,0.0684,-0.9395,37424.0273,50.37557349,16.28175148,0.36000001,
15:00:37:733,0.0441,0.2023,0.9829,-0.0782,0.0684,-0.9395,37424.0273,50.37557349,16.28175148,0.36000001,
15:00:37:738,0.0333,0.2132,0.9922,-0.0782,0.0684,-0.9395,37424.0273,50.37557349,16.28175148,0.36000001,
15:00:37:739,0.0333,0.2132,0.9922,-0.1899,-0.0721,-0.1469,37424.0273,50.37557349,16.28175148,0.36000001,
15:00:37:756,0.0287,0.2292,0.9975,-0.1899,-0.0721,-0.1469,37424.0273,50.37557349,16.28175148,0.36000001,
15:00:37:769,0.0773,0.2296,0.9880,-0.1899,-0.0721,-0.1469,37424.0273,50.37557349,16.28175148,0.36000001,
15:00:37:784,0.0773,0.2296,0.9880,-0.1899,-0.0721,-0.1469,38056.0273,50.37557349,16.28175148,0.36000001,
15:00:37:800,0.0773,0.2296,0.9880,-0.1899,-0.0721,-0.1469,38056.0273,50.37557349,16.28175148,0.36000001,
15:00:37:804,0.1113,0.2205,0.9353,-0.1899,-0.0721,-0.1469,38056.0273,50.37557349,16.28175148,0.36000001,
15:00:37:807,0.1113,0.2205,0.9353,-0.4443,-0.1396,0.1627,38056.0273,50.37557349,16.28175148,0.36000001,
15:00:37:819,0.1232,0.2090,0.9233,-0.4443,-0.1396,0.1627,38056.0273,50.37557349,16.28175148,0.36000001,
15:00:37:838,0.1356,0.2059,0.9367,-0.4443,-0.1396,0.1627,38056.0273,50.37557349,16.28175148,0.36000001,
15:00:37:854,0.1439,0.1923,0.9366,-0.4443,-0.1396,0.1627,38056.0273,50.37557349,16.28175148,0.36000001,
15:00:37:867,0.1439,0.1923,0.9366,-0.4443,-0.1396,0.1627,38056.0273,50.37557349,16.28175148,0.36000001,
15:00:37:875,0.1439,0.1923,0.9366,-0.0302,0.0817,-0.1737,38056.0273,50.37557349,16.28175148,0.36000001,
15:00:37:887,0.2336,0.1359,0.9709,-0.0302,0.0817,-0.1737,38056.0273,50.37557349,16.28175148,0.36000001,
15:00:37:903,0.2039,0.1339,0.9758,-0.0302,0.0817,-0.1737,38056.0273,50.37557349,16.28175148,0.36000001,
15:00:37:920,0.1755,0.1760,0.9856,-0.0302,0.0817,-0.1737,38056.0273,50.37557349,16.28175148,0.36000001,
15:00:37:935,0.1755,0.1760,0.9856,-0.0302,0.0817,-0.1737,38056.0273,50.37557349,16.28175148,0.36000001,
15:00:37:938,0.1192,0.2147,1.0100,-0.0302,0.0817,-0.1737,38056.0273,50.37557349,16.28175148,0.36000001,
15:00:37:942,0.1192,0.2147,1.0100,0.4836,-0.1449,-0.2499,38056.0273,50.37557349,16.28175148,0.36000001,
15:00:37:945,0.1192,0.2147,1.0100,0.4836,-0.1449,-0.2499,62255.9961,50.37557349,16.28175148,0.36000001,
15:00:37:962,0.1022,0.2487,1.0328,0.4836,-0.1449,-0.2499,62255.9961,50.37557349,16.28175148,0.36000001,
15:00:37:985,0.0883,0.2699,1.0268,0.4836,-0.1449,-0.2499,62255.9961,50.37557349,16.28175148,0.36000001,
15:00:38:002,0.0883,0.2699,1.0268,0.4836,-0.1449,-0.2499,62255.9961,50.37557349,16.28175148,0.36000001,
15:00:38:004,0.1331,0.2629,1.0046,0.4836,-0.1449,-0.2499,62255.9961,50.37557349,16.28175148,0.36000001,
15:00:38:010,0.1331,0.2629,1.0046,0.3962,-0.2716,0.2040,62255.9961,50.37557349,16.28175148,0.36000001,
15:00:38:036,0.1847,0.2165,1.0042,0.3962,-0.2716,0.2040,62255.9961,50.37557349,16.28175148,0.36000001,
15:00:38:053,0.1602,0.2341,1.0460,0.3962,-0.2716,0.2040,62255.9961,50.37557349,16.28175148,0.36000001,
15:00:38:069,0.1602,0.2341,1.0460,0.3962,-0.2716,0.2040,62255.9961,50.37557349,16.28175148,0.36000001,
15:00:38:072,0.1524,0.2555,1.0569,0.3962,-0.2716,0.2040,62255.9961,50.37557349,16.28175148,0.36000001,
15:00:38:078,0.1524,0.2555,1.0569,0.0824,0.3035,0.4106,62255.9961,50.37557349,16.28175148,0.36000001,
15:00:38:087,0.1428,0.2420,1.0217,0.0824,0.3035,0.4106,62255.9961,50.37557349,16.28175148,0.36000001,
15:00:38:103,0.1428,0.2420,1.0217,0.0824,0.3035,0.4106,79999.9922,50.37557349,16.28175148,0.36000001,
15:00:38:119,0.1392,0.2442,0.9951,0.0824,0.3035,0.4106,79999.9922,50.37557349,16.28175148,0.36000001,
15:00:38:136,0.1505,0.2500,0.9685,0.0824,0.3035,0.4106,79999.9922,50.37557349,16.28175148,0.36000001,
15:00:38:138,0.1505,0.2500,0.9685,0.0824,0.3035,0.4106,79999.9922,50.37557349,16.28175148,0.36000001,
15:00:38:147,0.1505,0.2500,0.9685,0.5520,-0.0965,0.5928,79999.9922,50.37557349,16.28175148,0.36000001,
15:00:38:155,0.1456,0.2614,0.9856,0.5520,-0.0965,0.5928,79999.9922,50.37557349,16.28175148,0.36000001,
15:00:38:186,0.1380,0.2617,0.9883,0.5520,-0.0965,0.5928,79999.9922,50.37557349,16.28175148,0.36000001,
15:00:38:203,0.1430,0.2577,0.9731,0.5520,-0.0965,0.5928,79999.9922,50.37557349,16.28175148,0.36000001,
15:00:38:206,0.1430,0.2577,0.9731,0.5520,-0.0965,0.5928,79999.9922,50.37557349,16.28175148,0.36000001,
15:00:38:215,0.1430,0.2577,0.9731,0.4985,-0.2460,0.1280,79999.9922,50.37557349,16.28175148,0.36000001,
15:00:38:222,0.1310,0.2509,0.9433,0.4985,-0.2460,0.1280,79999.9922,50.37557349,16.28175148,0.36000001,
15:00:38:235,0.1124,0.2510,0.9231,0.4985,-0.2460,0.1280,79999.9922,50.37557349,16.28175148,0.36000001,
15:00:38:269,0.1088,0.2495,0.9168,0.4985,-0.2460,0.1280,79999.9922,50.37557349,16.28175148,0.36000001,
15:00:38:273,0.1088,0.2495,0.9168,0.4985,-0.2460,0.1280,79999.9922,50.37557349,16.28175148,0.36000001,
15:00:38:283,0.1088,0.2495,0.9168,0.4472,-0.3205,0.0038,79999.9922,50.37557349,16.28175148,0.36000001,
15:00:38:287,0.0930,0.2522,0.9384,0.4472,-0.3205,0.0038,79999.9922,50.37557349,16.28175148,0.36000001,
15:00:38:303,0.0875,0.2506,0.9707,0.4472,-0.3205,0.0038,79999.9922,50.37557349,16.28175148,0.36000001,
15:00:38:320,0.0761,0.2406,0.9949,0.4472,-0.3205,0.0038,79999.9922,50.37557349,16.28175148,0.36000001,
15:00:38:340,0.0761,0.2406,0.9949,0.4472,-0.3205,0.0038,79999.9922,50.37557349,16.28175148,0.36000001,
15:00:38:349,0.0761,0.2406,0.9949,0.1415,-0.4453,-0.3259,79999.9922,50.37557349,16.28175148,0.36000001,
15:00:38:356,0.0718,0.2390,1.0046,0.1415,-0.4453,-0.3259,79999.9922,50.37557349,16.28175148,0.36000001,
15:00:38:370,0.0625,0.2483,0.9895,0.1415,-0.4453,-0.3259,79999.9922,50.37557349,16.28175148,0.36000001,
15:00:38:385,0.0483,0.2501,0.9569,0.1415,-0.4453,-0.3259,79999.9922,50.37557349,16.28175148,0.36000001,
15:00:38:405,0.0376,0.2460,0.9336,0.1415,-0.4453,-0.3259,79999.9922,50.37557349,16.28175148,0.36000001,
15:00:38:409,0.0376,0.2460,0.9336,0.1415,-0.4453,-0.3259,79999.9922,50.37557349,16.28175148,0.36000001,
15:00:38:416,0.0376,0.2460,0.9336,-0.0029,-0.5903,0.3022,79999.9922,50.37557349,16.28175148,0.36000001,
15:00:38:434,0.0239,0.2570,0.9316,-0.0029,-0.5903,0.3022,79999.9922,50.37557349,16.28175148,0.36000001,
15:00:38:451,0.0167,0.2626,0.9372,-0.0029,-0.5903,0.3022,79999.9922,50.37557349,16.28175148,0.36000001,
15:00:38:468,0.0076,0.2677,0.9347,-0.0029,-0.5903,0.3022,79999.9922,50.37557349,16.28175148,0.36000001,
15:00:38:476,0.0076,0.2677,0.9347,-0.0029,-0.5903,0.3022,79999.9922,50.37557349,16.28175148,0.36000001,
15:00:38:484,0.0076,0.2677,0.9347,-0.1740,-0.5539,-0.0817,79999.9922,50.37557349,16.28175148,0.36000001,
15:00:38:498,0.0021,0.2705,0.9422,-0.1740,-0.5539,-0.0817,79999.9922,50.37557349,16.28175148,0.36000001,
15:00:38:520,-0.0015,0.2746,0.9511,-0.1740,-0.5539,-0.0817,79999.9922,50.37557349,16.28175148,0.36000001,
15:00:38:534,-0.0045,0.2775,0.9693,-0.1740,-0.5539,-0.0817,79999.9922,50.37557349,16.28175148,0.36000001,
15:00:38:543,-0.0045,0.2775,0.9693,-0.1740,-0.5539,-0.0817,79999.9922,50.37557349,16.28175148,0.36000001,
15:00:38:553,-0.0045,0.2775,0.9693,-0.2973,-0.4143,-0.1828,79999.9922,50.37557349,16.28175148,0.36000001,
15:00:38:554,-0.0040,0.2818,0.9705,-0.2973,-0.4143,-0.1828,79999.9922,50.37557349,16.28175148,0.36000001,
15:00:38:585,-0.0138,0.2746,0.9739,-0.2973,-0.4143,-0.1828,79999.9922,50.37557349,16.28175148,0.36000001,
15:00:38:604,-0.0092,0.2726,0.9907,-0.2973,-0.4143,-0.1828,79999.9922,50.37557349,16.28175148,0.36000001,
15:00:38:613,-0.0092,0.2726,0.9907,-0.2973,-0.4143,-0.1828,79999.9922,50.37557349,16.28175148,0.36000001,
15:00:38:620,-0.0092,0.2726,0.9907,-0.2881,-0.2994,0.0763,79999.9922,50.37557349,16.28175148,0.36000001,
15:00:38:622,-0.0062,0.2689,0.9996,-0.2881,-0.2994,0.0763,79999.9922,50.37557349,16.28175148,0.36000001,
15:00:38:637,-0.0098,0.2642,0.9957,-0.2881,-0.2994,0.0763,79999.9922,50.37557349,16.28175148,0.36000001,
15:00:38:669,-0.0160,0.2648,0.9944,-0.2881,-0.2994,0.0763,79999.9922,50.37557349,16.28175148,0.36000001,
15:00:38:683,-0.0160,0.2648,0.9944,-0.2881,-0.2994,0.0763,79999.9922,50.37557349,16.28175148,0.36000001,
15:00:38:688,-0.0206,0.2653,1.0082,-0.2881,-0.2994,0.0763,79999.9922,50.37557349,16.28175148,0.36000001,
15:00:38:691,-0.0206,0.2653,1.0082,-0.2529,-0.3653,0.3083,79999.9922,50.37557349,16.28175148,0.36000001,
15:00:38:703,-0.0194,0.2592,1.0203,-0.2529,-0.3653,0.3083,79999.9922,50.37557349,16.28175148,0.36000001,
15:00:38:734,-0.0177,0.2611,1.0094,-0.2529,-0.3653,0.3083,79999.9922,50.37557349,16.28175148,0.36000001,
15:00:38:748,-0.0177,0.2611,1.0094,-0.2529,-0.3653,0.3083,79999.9922,50.37557349,16.28175148,0.36000001,
15:00:38:754,-0.0170,0.2616,0.9721,-0.2529,-0.3653,0.3083,79999.9922,50.37557349,16.28175148,0.36000001,
15:00:38:757,-0.0170,0.2616,0.9721,-0.3915,-0.4655,0.4142,79999.9922,50.37557349,16.28175148,0.36000001,
15:00:38:770,-0.0189,0.2658,0.9421,-0.3915,-0.4655,0.4142,79999.9922,50.37557349,16.28175148,0.36000001,
15:00:38:790,-0.0164,0.2614,0.9282,-0.3915,-0.4655,0.4142,79999.9922,50.37557349,16.28175148,0.36000001,
15:00:38:815,-0.0164,0.2614,0.9282,-0.3915,-0.4655,0.4142,79999.9922,50.37557349,16.28175148,0.36000001,
15:00:38:818,-0.0096,0.2660,0.9358,-0.3915,-0.4655,0.4142,79999.9922,50.37557349,16.28175148,0.36000001,
15:00:38:823,-0.0096,0.2660,0.9358,-0.5862,-0.5017,0.2801,79999.9922,50.37557349,16.28175148,0.36000001,
15:00:38:835,-0.0071,0.2860,0.9558,-0.5862,-0.5017,0.2801,79999.9922,50.37557349,16.28175148,0.36000001,
15:00:38:853,0.0099,0.2562,0.9732,-0.5862,-0.5017,0.2801,79999.9922,50.37557349,16.28175148,0.36000001,
15:00:38:871,-0.0115,0.2616,0.9533,-0.5862,-0.5017,0.2801,79999.9922,50.37557349,16.28175148,0.36000001,
15:00:38:883,-0.0115,0.2616,0.9533,-0.5862,-0.5017,0.2801,79999.9922,50.37557349,16.28175148,0.36000001,
15:00:38:893,-0.0115,0.2616,0.9533,-0.5864,-0.4618,-0.1544,79999.9922,50.37557349,16.28175148,0.36000001,
15:00:38:901,-0.0145,0.2548,0.9640,-0.5864,-0.4618,-0.1544,79999.9922,50.37557349,16.28175148,0.36000001,
15:00:38:918,-0.0166,0.2510,0.9931,-0.5864,-0.4618,-0.1544,79999.9922,50.37557349,16.28175148,0.36000001,
15:00:38:934,-0.0164,0.2598,1.0058,-0.5864,-0.4618,-0.1544,79999.9922,50.37557349,16.28175148,0.36000001,
15:00:38:951,-0.0164,0.2598,1.0058,-0.5864,-0.4618,-0.1544,79999.9922,50.37557349,16.28175148,0.36000001,
15:00:38:955,-0.0301,0.2658,0.9950,-0.5864,-0.4618,-0.1544,79999.9922,50.37557349,16.28175148,0.36000001,
15:00:38:959,-0.0301,0.2658,0.9950,-0.3670,-0.6045,0.1167,79999.9922,50.37557349,16.28175148,0.36000001,
15:00:38:988,-0.0447,0.2773,0.9243,-0.3670,-0.6045,0.1167,79999.9922,50.37557349,16.28175148,0.36000001,
15:00:39:000,-0.0809,0.2888,0.8842,-0.3670,-0.6045,0.1167,79999.9922,50.37557349,16.28175148,0.36000001,
15:00:39:018,-0.0809,0.2888,0.8842,-0.3670,-0.6045,0.1167,79999.9922,50.37557349,16.28175148,0.36000001,
15:00:39:021,-0.0944,0.2997,0.8699,-0.3670,-0.6045,0.1167,79999.9922,50.37557349,16.28175148,0.36000001,
15:00:39:027,-0.0944,0.2997,0.8699,-0.3394,-0.5296,0.3742,79999.9922,50.37557349,16.28175148,0.36000001,
15:00:39:052,-0.0963,0.3173,0.8774,-0.3394,-0.5296,0.3742,79999.9922,50.37557349,16.28175148,0.36000001,
15:00:39:068,-0.1193,0.3322,0.8896,-0.3394,-0.5296,0.3742,79999.9922,50.37557349,16.28175148,0.36000001,
15:00:39:086,-0.1193,0.3322,0.8896,-0.3394,-0.5296,0.3742,79999.9922,50.37557349,16.28175148,0.36000001,
15:00:39:088,-0.1278,0.3415,0.8905,-0.3394,-0.5296,0.3742,79999.9922,50.37557349,16.28175148,0.36000001,
15:00:39:095,-0.1278,0.3415,0.8905,-0.5991,-0.2182,-0.6045,79999.9922,50.37557349,16.28175148,0.36000001,
15:00:39:109,-0.1412,0.3518,0.8871,-0.5991,-0.2182,-0.6045,79999.9922,50.37557349,16.28175148,0.36000001,
15:00:39:134,-0.1392,0.3537,0.8869,-0.5991,-0.2182,-0.6045,79999.9922,50.37557349,16.28175148,0.36000001,
15:00:39:155,-0.1392,0.3537,0.8869,-0.5991,-0.2182,-0.6045,79999.9922,50.37557349,16.28175148,0.36000001,
15:00:39:157,-0.1343,0.3600,0.8972,-0.5991,-0.2182,-0.6045,79999.9922,50.37557349,16.28175148,0.36000001,
15:00:39:163,-0.1343,0.3600,0.8972,-0.8745,0.1230,-0.4998,79999.9922,50.37557349,16.28175148,0.36000001,
15:00:39:171,-0.1184,0.3590,0.8924,-0.8745,0.1230,-0.4998,79999.9922,50.37557349,16.28175148,0.36000001,
15:00:39:189,-0.1127,0.3537,0.9077,-0.8745,0.1230,-0.4998,79999.9922,50.37557349,16.28175148,0.36000001,
15:00:39:217,-0.1098,0.3539,0.9446,-0.8745,0.1230,-0.4998,79999.9922,50.37557349,16.28175148,0.36000001,
15:00:39:221,-0.1098,0.3539,0.9446,-0.8745,0.1230,-0.4998,79999.9922,50.37557349,16.28175148,0.36000001,
15:00:39:231,-0.1098,0.3539,0.9446,-0.8690,0.3457,-0.4352,79999.9922,50.37557349,16.28175148,0.36000001,
15:00:39:235,-0.0971,0.3545,0.9704,-0.8690,0.3457,-0.4352,79999.9922,50.37557349,16.28175148,0.36000001,
15:00:39:253,-0.0998,0.3559,0.9820,-0.8690,0.3457,-0.4352,79999.9922,50.37557349,16.28175148,0.36000001,
15:00:39:283,-0.1046,0.3640,0.9586,-0.8690,0.3457,-0.4352,79999.9922,50.37557349,16.28175148,0.36000001,
15:00:39:290,-0.1046,0.3640,0.9586,-0.8690,0.3457,-0.4352,79999.9922,50.37557349,16.28175148,0.36000001,
15:00:39:298,-0.1046,0.3640,0.9586,-0.4485,0.3796,-0.0061,79999.9922,50.37557349,16.28175148,0.36000001,
15:00:39:304,-0.1146,0.3719,0.9236,-0.4485,0.3796,-0.0061,79999.9922,50.37557349,16.28175148,0.36000001,
15:00:39:321,-0.1232,0.3680,0.9012,-0.4485,0.3796,-0.0061,79999.9922,50.37557349,16.28175148,0.36000001,
15:00:39:350,-0.1207,0.3744,0.9016,-0.4485,0.3796,-0.0061,79999.9922,50.37557349,16.28175148,0.36000001,
15:00:39:357,-0.1207,0.3744,0.9016,-0.4485,0.3796,-0.0061,79999.9922,50.37557349,16.28175148,0.36000001,
15:00:39:367,-0.1207,0.3744,0.9016,-0.4300,0.5007,0.0865,79999.9922,50.37557349,16.28175148,0.36000001,
15:00:39:369,-0.1078,0.3821,0.9093,-0.4300,0.5007,0.0865,79999.9922,50.37557349,16.28175148,0.36000001,
15:00:39:385,-0.1051,0.3871,0.9127,-0.4300,0.5007,0.0865,79999.9922,50.37557349,16.28175148,0.36000001,
15:00:39:400,-0.1047,0.3923,0.9153,-0.4300,0.5007,0.0865,79999.9922,50.37557349,16.28175148,0.36000001,
15:00:39:426,-0.1047,0.3923,0.9153,-0.4300,0.5007,0.0865,79999.9922,50.37557349,16.28175148,0.36000001,
15:00:39:434,-0.1047,0.3923,0.9153,-0.5770,0.5613,-0.3416,79999.9922,50.37557349,16.28175148,0.36000001,
15:00:39:451,-0.0978,0.3929,0.9309,-0.5770,0.5613,-0.3416,79999.9922,50.37557349,16.28175148,0.36000001,
15:00:39:453,-0.0922,0.3963,0.9486,-0.5770,0.5613,-0.3416,79999.9922,50.37557349,16.28175148,0.36000001,
15:00:39:470,-0.0886,0.4018,0.9505,-0.5770,0.5613,-0.3416,79999.9922,50.37557349,16.28175148,0.36000001,
15:00:39:495,-0.0886,0.4018,0.9505,-0.5770,0.5613,-0.3416,79999.9922,50.37557349,16.28175148,0.36000001,
15:00:39:502,-0.0886,0.4018,0.9505,-0.5028,0.6281,-0.1258,79999.9922,50.37557349,16.28175148,0.36000001,
15:00:39:503,-0.0897,0.3984,0.9508,-0.5028,0.6281,-0.1258,79999.9922,50.37557349,16.28175148,0.36000001,
15:00:39:509,-0.0892,0.3951,0.9562,-0.5028,0.6281,-0.1258,79999.9922,50.37557349,16.28175148,0.36000001,
15:00:39:535,-0.0887,0.3948,0.9643,-0.5028,0.6281,-0.1258,79999.9922,50.37557349,16.28175148,0.36000001,
15:00:39:543,-0.0887,0.3948,0.9643,-0.5028,0.6281,-0.1258,41974.0000,50.37557349,16.28175148,0.36000001,
15:00:39:550,-0.0783,0.3921,0.9693,-0.5028,0.6281,-0.1258,41974.0000,50.37557349,16.28175148,0.36000001,
15:00:39:561,-0.0783,0.3921,0.9693,-0.5028,0.6281,-0.1258,41974.0000,50.37557349,16.28175148,0.36000001,
15:00:39:569,-0.0783,0.3921,0.9693,-0.4716,0.6107,0.1108,41974.0000,50.37557349,16.28175148,0.36000001,
15:00:39:570,-0.0677,0.3998,0.9444,-0.4716,0.6107,0.1108,41974.0000,50.37557349,16.28175148,0.36000001,
15:00:39:592,-0.0645,0.4035,0.9093,-0.4716,0.6107,0.1108,41974.0000,50.37557349,16.28175148,0.36000001,
15:00:39:617,-0.0609,0.3889,0.9288,-0.4716,0.6107,0.1108,41974.0000,50.37557349,16.28175148,0.36000001,
15:00:39:629,-0.0609,0.3889,0.9288,-0.4716,0.6107,0.1108,41974.0000,50.37557349,16.28175148,0.36000001,
15:00:39:636,-0.0495,0.3625,1.0262,-0.4716,0.6107,0.1108,41974.0000,50.37557349,16.28175148,0.36000001,
15:00:39:637,-0.0495,0.3625,1.0262,-0.4780,0.5650,0.1409,41974.0000,50.37557349,16.28175148,0.36000001,
15:00:39:666,-0.0283,0.3420,1.1018,-0.4780,0.5650,0.1409,41974.0000,50.37557349,16.28175148,0.36000001,
15:00:39:684,-0.0071,0.3339,1.0945,-0.4780,0.5650,0.1409,41974.0000,50.37557349,16.28175148,0.36000001,
15:00:39:696,-0.0071,0.3339,1.0945,-0.4780,0.5650,0.1409,41974.0000,50.37557349,16.28175148,0.36000001,
15:00:39:701,0.0051,0.3368,1.0472,-0.4780,0.5650,0.1409,41974.0000,50.37557349,16.28175148,0.36000001,
15:00:39:704,0.0051,0.3368,1.0472,-0.4780,0.5650,0.1409,3409.0200,50.37557349,16.28175148,0.36000001,
15:00:39:706,0.0051,0.3368,1.0472,-0.3264,0.4445,0.1361,3409.0200,50.37557349,16.28175148,0.36000001,
15:00:39:719,0.0080,0.3302,0.9905,-0.3264,0.4445,0.1361,3409.0200,50.37557349,16.28175148,0.36000001,
15:00:39:749,0.0057,0.3173,0.9568,-0.3264,0.4445,0.1361,3409.0200,50.37557349,16.28175148,0.36000001,
15:00:39:764,0.0057,0.3173,0.9568,-0.3264,0.4445,0.1361,3409.0200,50.37557349,16.28175148,0.36000001,
15:00:39:767,0.0184,0.3101,0.9389,-0.3264,0.4445,0.1361,3409.0200,50.37557349,16.28175148,0.36000001,
15:00:39:773,0.0184,0.3101,0.9389,0.1328,0.0837,1.0323,3409.0200,50.37557349,16.28175148,0.36000001,
15:00:39:785,0.0353,0.3011,0.9467,0.1328,0.0837,1.0323,3409.0200,50.37557349,16.28175148,0.36000001,
15:00:39:815,0.0495,0.2870,0.9582,0.1328,0.0837,1.0323,3409.0200,50.37557349,16.28175148,0.36000001,
15:00:39:832,0.0495,0.2870,0.9582,0.1328,0.0837,1.0323,3409.0200,50.37557349,16.28175148,0.36000001,
15:00:39:833,0.0656,0.2846,0.9495,0.1328,0.0837,1.0323,3409.0200,50.37557349,16.28175148,0.36000001,
15:00:39:841,0.0656,0.2846,0.9495,0.1520,-0.2462,-0.0710,3409.0200,50.37557349,16.28175148,0.36000001,
15:00:39:852,0.0913,0.2815,0.9355,0.1520,-0.2462,-0.0710,3409.0200,50.37557349,16.28175148,0.36000001,
15:00:39:863,0.0913,0.2815,0.9355,0.1520,-0.2462,-0.0710,3388.9727,50.37557349,16.28175148,0.36000001,
15:00:39:867,0.1257,0.2791,0.9455,0.1520,-0.2462,-0.0710,3388.9727,50.37557349,16.28175148,0.36000001,
15:00:39:898,0.1613,0.2759,0.9658,0.1520,-0.2462,-0.0710,3388.9727,50.37557349,16.28175148,0.36000001,
15:00:39:899,0.1613,0.2759,0.9658,0.1520,-0.2462,-0.0710,3388.9727,50.37557349,16.28175148,0.36000001,
15:00:39:908,0.1613,0.2759,0.9658,0.2970,-0.7093,-0.0011,3388.9727,50.37557349,16.28175148,0.36000001,
15:00:39:916,0.1924,0.2722,0.9519,0.2970,-0.7093,-0.0011,3388.9727,50.37557349,16.28175148,0.36000001,
15:00:39:935,0.2094,0.2725,0.9164,0.2970,-0.7093,-0.0011,3388.9727,50.37557349,16.28175148,0.36000001,
15:00:39:957,0.2337,0.2842,0.8777,0.2970,-0.7093,-0.0011,3388.9727,50.37557349,16.28175148,0.36000001,
15:00:39:967,0.2337,0.2842,0.8777,0.2970,-0.7093,-0.0011,3388.9727,50.37557349,16.28175148,0.36000001,
15:00:39:976,0.2337,0.2842,0.8777,0.9630,-0.8350,0.0839,3388.9727,50.37557349,16.28175148,0.36000001,
15:00:39:981,0.2503,0.2837,0.8726,0.9630,-0.8350,0.0839,3388.9727,50.37557349,16.28175148,0.36000001,
15:00:39:999,0.2592,0.2867,0.9233,0.9630,-0.8350,0.0839,3388.9727,50.37557349,16.28175148,0.36000001,
15:00:40:016,0.2729,0.2863,0.9837,0.9630,-0.8350,0.0839,3388.9727,50.37557349,16.28175148,0.36000001,
15:00:40:023,0.2729,0.2863,0.9837,0.9630,-0.8350,0.0839,3464.9775,50.37557349,16.28175148,0.36000001,
15:00:40:035,0.2729,0.2863,0.9837,0.9630,-0.8350,0.0839,3464.9775,50.37557349,16.28175148,0.36000001,
15:00:40:045,0.2729,0.2863,0.9837,1.4194,-0.6502,-0.4954,3464.9775,50.37557349,16.28175148,0.36000001,
15:00:40:050,0.2589,0.2821,1.0217,1.4194,-0.6502,-0.4954,3464.9775,50.37557349,16.28175148,0.36000001,
15:00:40:066,0.2300,0.2741,1.0168,1.4194,-0.6502,-0.4954,3464.9775,50.37557349,16.28175148,0.36000001,
15:00:40:083,0.2060,0.2816,1.0003,1.4194,-0.6502,-0.4954,3464.9775,50.37557349,16.28175148,0.36000001,
15:00:40:100,0.1837,0.2887,0.9717,1.4194,-0.6502,-0.4954,3464.9775,50.37557349,16.28175148,0.36000001,
15:00:40:103,0.1837,0.2887,0.9717,1.4194,-0.6502,-0.4954,3464.9775,50.37557349,16.28175148,0.36000001,
15:00:40:112,0.1837,0.2887,0.9717,1.6714,-0.4715,0.3677,3464.9775,50.37557349,16.28175148,0.36000001,
15:00:40:134,0.1532,0.2946,0.9193,1.6714,-0.4715,0.3677,3464.9775,50.37557349,16.28175148,0.36000001,
15:00:40:149,0.1268,0.2921,0.8674,1.6714,-0.4715,0.3677,3464.9775,50.37557349,16.28175148,0.36000001,
15:00:40:166,0.1116,0.2943,0.8647,1.6714,-0.4715,0.3677,3464.9775,50.37557349,16.28175148,0.36000001,
15:00:40:171,0.1116,0.2943,0.8647,1.6714,-0.4715,0.3677,3464.9775,50.37557349,16.28175148,0.36000001,
15:00:40:180,0.1116,0.2943,0.8647,1.0738,-0.3427,0.2400,3464.9775,50.37557349,16.28175148,0.36000001,
15:00:40:184,0.1116,0.2943,0.8647,1.0738,-0.3427,0.2400,3595.9951,50.37557349,16.28175148,0.36000001,
15:00:40:188,0.1156,0.2904,0.8905,1.0738,-0.3427,0.2400,3595.9951,50.37557349,16.28175148,0.36000001,
15:00:40:215,0.1163,0.2867,0.9089,1.0738,-0.3427,0.2400,3595.9951,50.37557349,16.28175148,0.36000001,
15:00:40:234,0.1232,0.2904,0.8967,1.0738,-0.3427,0.2400,3595.9951,50.37557349,16.28175148,0.36000001,
15:00:40:239,0.1232,0.2904,0.8967,1.0738,-0.3427,0.2400,3595.9951,50.37557349,16.28175148,0.36000001,
15:00:40:248,0.1232,0.2904,0.8967,0.2594,-0.2963,-0.6831,3595.9951,50.37557349,16.28175148,0.36000001,
15:00:40:251,0.1307,0.2914,0.8886,0.2594,-0.2963,-0.6831,3595.9951,50.37557349,16.28175148,0.36000001,
15:00:40:282,0.1473,0.3006,0.9035,0.2594,-0.2963,-0.6831,3595.9951,50.37557349,16.28175148,0.36000001,
15:00:40:301,0.1579,0.3026,0.9264,0.2594,-0.2963,-0.6831,3595.9951,50.37557349,16.28175148,0.36000001,
15:00:40:306,0.1579,0.3026,0.9264,0.2594,-0.2963,-0.6831,3595.9951,50.37557349,16.28175148,0.36000001,
15:00:40:312,0.1542,0.3031,0.9407,0.2594,-0.2963,-0.6831,3595.9951,50.37557349,16.28175148,0.36000001,
15:00:40:315,0.1542,0.3031,0.9407,0.1362,-0.2980,-0.3929,3595.9951,50.37557349,16.28175148,0.36000001,
15:00:40:332,0.1472,0.3109,0.9379,0.1362,-0.2980,-0.3929,3595.9951,50.37557349,16.28175148,0.36000001,
15:00:40:345,0.1472,0.3109,0.9379,0.1362,-0.2980,-0.3929,4257.0225,50.37557349,16.28175148,0.36000001,
15:00:40:366,0.1450,0.3255,0.9154,0.1362,-0.2980,-0.3929,4257.0225,50.37557349,16.28175148,0.36000001,
15:00:40:374,0.1450,0.3255,0.9154,0.1362,-0.2980,-0.3929,4257.0225,50.37557349,16.28175148,0.36000001,
15:00:40:381,0.1395,0.3363,0.9057,0.1362,-0.2980,-0.3929,4257.0225,50.37557349,16.28175148,0.36000001,
15:00:40:383,0.1395,0.3363,0.9057,0.3904,-0.1216,-0.1306,4257.0225,50.37557349,16.28175148,0.36000001,
15:00:40:399,0.1246,0.3453,0.9101,0.3904,-0.1216,-0.1306,4257.0225,50.37557349,16.28175148,0.36000001,
15:00:40:417,0.1283,0.3421,0.9280,0.3904,-0.1216,-0.1306,4257.0225,50.37557349,16.28175148,0.36000001,
15:00:40:442,0.1283,0.3421,0.9280,0.3904,-0.1216,-0.1306,4257.0225,50.37557349,16.28175148,0.36000001,
15:00:40:449,0.1198,0.3489,0.9258,0.3904,-0.1216,-0.1306,4257.0225,50.37557349,16.28175148,0.36000001,
15:00:40:451,0.1198,0.3489,0.9258,0.2477,0.1551,-0.2028,4257.0225,50.37557349,16.28175148,0.36000001,
15:00:40:464,0.1130,0.3557,0.9153,0.2477,0.1551,-0.2028,4257.0225,50.37557349,16.28175148,0.36000001,
15:00:40:485,0.1149,0.3547,0.9166,0.2477,0.1551,-0.2028,4257.0225,50.37557349,16.28175148,0.36000001,
15:00:40:504,0.1149,0.3547,0.9166,0.2477,0.1551,-0.2028,79999.9922,50.37557349,16.28175148,0.36000001,
15:00:40:505,0.1088,0.3561,0.9276,0.2477,0.1551,-0.2028,79999.9922,50.37557349,16.28175148,0.36000001,
15:00:40:512,0.1088,0.3561,0.9276,0.2477,0.1551,-0.2028,79999.9922,50.37557349,16.28175148,0.36000001,
15:00:40:518,0.1088,0.3561,0.9276,0.1041,0.3935,-0.1623,79999.9922,50.37557349,16.28175148,0.36000001,
15:00:40:532,0.1115,0.3568,0.9441,0.1041,0.3935,-0.1623,79999.9922,50.37557349,16.28175148,0.36000001,
15:00:40:550,0.1156,0.3632,0.9568,0.1041,0.3935,-0.1623,79999.9922,50.37557349,16.28175148,0.36000001,
15:00:40:567,0.1072,0.3603,0.9428,0.1041,0.3935,-0.1623,79999.9922,50.37557349,16.28175148,0.36000001,
15:00:40:578,0.1072,0.3603,0.9428,0.1041,0.3935,-0.1623,79999.9922,50.37557349,16.28175148,0.36000001,
15:00:40:587,0.1072,0.3603,0.9428,0.0786,0.4751,-0.1410,79999.9922,50.37557349,16.28175148,0.36000001,
15:00:40:598,0.0934,0.3643,0.8974,0.0786,0.4751,-0.1410,79999.9922,50.37557349,16.28175148,0.36000001,
15:00:40:615,0.0715,0.3480,0.9226,0.0786,0.4751,-0.1410,79999.9922,50.37557349,16.28175148,0.36000001,
15:00:40:633,0.0461,0.3655,0.9922,0.0786,0.4751,-0.1410,79999.9922,50.37557349,16.28175148,0.36000001,
15:00:40:647,0.0461,0.3655,0.9922,0.0786,0.4751,-0.1410,79999.9922,50.37557349,16.28175148,0.36000001,
15:00:40:651,0.1200,0.3934,1.0253,0.0786,0.4751,-0.1410,79999.9922,50.37557349,16.28175148,0.36000001,
15:00:40:654,0.1200,0.3934,1.0253,-0.0622,0.3682,-0.0087,79999.9922,50.37557349,16.28175148,0.36000001,
15:00:40:682,0.1140,0.4352,0.9449,-0.0622,0.3682,-0.0087,79999.9922,50.37557349,16.28175148,0.36000001,
15:00:40:700,0.1242,0.4296,0.8958,-0.0622,0.3682,-0.0087,79999.9922,50.37557349,16.28175148,0.36000001,
15:00:40:713,0.1242,0.4296,0.8958,-0.0622,0.3682,-0.0087,79999.9922,50.37557349,16.28175148,0.36000001,
15:00:40:718,0.1286,0.4366,0.9060,-0.0622,0.3682,-0.0087,79999.9922,50.37557349,16.28175148,0.36000001,
15:00:40:722,0.1286,0.4366,0.9060,-0.2013,0.2541,0.4517,79999.9922,50.37557349,16.28175148,0.36000001,
15:00:40:749,0.1276,0.4201,0.9677,-0.2013,0.2541,0.4517,79999.9922,50.37557349,16.28175148,0.36000001,
15:00:40:761,0.1179,0.3905,1.0502,-0.2013,0.2541,0.4517,79999.9922,50.37557349,16.28175148,0.36000001,
15:00:40:781,0.1179,0.3905,1.0502,-0.2013,0.2541,0.4517,79999.9922,50.37557349,16.28175148,0.36000001,
15:00:40:783,0.1093,0.3483,1.0937,-0.2013,0.2541,0.4517,79999.9922,50.37557349,16.28175148,0.36000001,
15:00:40:789,0.1093,0.3483,1.0937,0.3189,0.9895,-0.2736,79999.9922,50.37557349,16.28175148,0.36000001,
15:00:40:799,0.1297,0.3164,1.0966,0.3189,0.9895,-0.2736,79999.9922,50.37557349,16.28175148,0.36000001,
15:00:40:824,0.1290,0.3083,1.0424,0.3189,0.9895,-0.2736,79999.9922,50.37557349,16.28175148,0.36000001,
15:00:40:849,0.1002,0.3039,0.9387,0.3189,0.9895,-0.2736,79999.9922,50.37557349,16.28175148,0.36000001,
15:00:40:851,0.1002,0.3039,0.9387,0.3189,0.9895,-0.2736,79999.9922,50.37557349,16.28175148,0.36000001,
15:00:40:857,0.1002,0.3039,0.9387,0.2810,0.3246,1.0310,79999.9922,50.37557349,16.28175148,0.36000001,
15:00:40:866,0.0973,0.2751,0.8405,0.2810,0.3246,1.0310,79999.9922,50.37557349,16.28175148,0.36000001,
15:00:40:883,0.0414,0.2836,0.8282,0.2810,0.3246,1.0310,79999.9922,50.37557349,16.28175148,0.36000001,
15:00:40:915,0.0202,0.2765,0.8818,0.2810,0.3246,1.0310,79999.9922,50.37557349,16.28175148,0.36000001,
15:00:40:917,0.0202,0.2765,0.8818,0.2810,0.3246,1.0310,79999.9922,50.37557349,16.28175148,0.36000001,
15:00:40:927,0.0202,0.2765,0.8818,0.4469,-0.2289,0.0404,79999.9922,50.37557349,16.28175148,0.36000001,
15:00:40:932,0.0041,0.2557,0.9231,0.4469,-0.2289,0.0404,79999.9922,50.37557349,16.28175148,0.36000001,
15:00:40:951,0.0199,0.2409,0.8653,0.4469,-0.2289,0.0404,79999.9922,50.37557349,16.28175148,0.36000001,
15:00:40:980,0.0472,0.1839,0.7693,0.4469,-0.2289,0.0404,79999.9922,50.37557349,16.28175148,0.36000001,
15:00:40:986,0.0472,0.1839,0.7693,0.4469,-0.2289,0.0404,79999.9922,50.37557349,16.28175148,0.36000001,
15:00:40:994,0.0472,0.1839,0.7693,-0.1249,-0.1853,-0.8633,79999.9922,50.37557349,16.28175148,0.36000001,
15:00:40:998,-0.0577,0.2219,1.0420,-0.1249,-0.1853,-0.8633,79999.9922,50.37557349,16.28175148,0.36000001,
15:00:41:021,0.0162,0.2080,1.0538,-0.1249,-0.1853,-0.8633,79999.9922,50.37557349,16.28175148,0.36000001,
15:00:41:031,0.0726,0.1758,0.9312,-0.1249,-0.1853,-0.8633,79999.9922,50.37557349,16.28175148,0.36000001,
15:01:18:212,0.6951,0.4910,0.5204,-0.1249,-0.1853,-0.8633,79999.9922,50.37557349,16.28175148,0.36000001,
15:01:18:213,0.6796,0.5286,0.5150,-0.1249,-0.1853,-0.8633,79999.9922,50.37557730,16.28175590,0.33000001,
15:01:18:234,0.6246,0.5104,0.4721,-0.1249,-0.1853,-0.8633,79999.9922,50.37557730,16.28175590,0.33000001,
15:01:18:240,0.6246,0.5104,0.4721,-0.1249,-0.1853,-0.8633,79999.9922,50.37557730,16.28175590,0.33000001,
15:01:18:244,0.6246,0.5104,0.4721,-0.1249,-0.1853,-0.8633,79999.9922,50.37557730,16.28175590,0.33000001,
15:01:18:258,0.7431,0.4940,0.5796,-0.1249,-0.1853,-0.8633,79999.9922,50.37557730,16.28175590,0.33000001,
15:01:18:276,0.6209,0.4584,0.5624,-0.1249,-0.1853,-0.8633,79999.9922,50.37557730,16.28175590,0.33000001,
15:01:18:307,0.6209,0.4584,0.5624,-0.1249,-0.1853,-0.8633,79999.9922,50.37557730,16.28175590,0.33000001,
15:01:18:329,0.5243,0.4869,0.3166,-0.1249,-0.1853,-0.8633,79999.9922,50.37557730,16.28175590,0.33000001,
15:01:18:329,0.3222,0.4902,0.8865,-0.1249,-0.1853,-0.8633,79999.9922,50.37557730,16.28175590,0.33000001,
15:01:18:333,0.3222,0.4902,0.8865,0.0000,0.0000,0.0000,79999.9922,50.37557730,16.28175590,0.33000001,
15:01:18:336,0.2836,0.4833,1.0849,0.0000,0.0000,0.0000,79999.9922,50.37557730,16.28175590,0.33000001,
15:01:18:374,0.2836,0.4833,1.0849,0.0000,0.0000,0.0000,79999.9922,50.37557730,16.28175590,0.33000001,
15:01:18:400,0.2836,0.4833,1.0849,-1.1467,0.2237,0.6102,79999.9922,50.37557730,16.28175590,0.33000001,
15:01:18:402,0.2836,0.4833,1.0849,-1.1467,0.2237,0.6102,79999.9922,50.37557730,16.28175590,0.33000001,
15:01:18:403,0.3739,0.3824,0.9748,-1.1467,0.2237,0.6102,79999.9922,50.37557730,16.28175590,0.33000001,
15:01:18:404,0.5087,0.2652,0.9042,-1.1467,0.2237,0.6102,79999.9922,50.37557730,16.28175590,0.33000001,
15:01:18:404,0.5035,0.3424,0.9704,-1.1467,0.2237,0.6102,79999.9922,50.37557730,16.28175590,0.33000001,
15:01:18:438,0.4094,0.3658,1.0166,-1.1467,0.2237,0.6102,79999.9922,50.37557730,16.28175590,0.33000001,
15:01:18:443,0.4094,0.3658,1.0166,-1.1467,0.2237,0.6102,79999.9922,50.37557730,16.28175590,0.33000001,
15:01:18:469,0.4094,0.3658,1.0166,0.4114,-0.8897,1.3385,79999.9922,50.37557730,16.28175590,0.33000001,
15:01:18:504,0.3783,0.3333,0.8861,0.4114,-0.8897,1.3385,79999.9922,50.37557730,16.28175590,0.33000001,
15:01:18:505,0.2951,0.4458,1.0633,0.4114,-0.8897,1.3385,79999.9922,50.37557730,16.28175590,0.33000001,
15:01:18:506,0.2114,0.3971,1.0279,0.4114,-0.8897,1.3385,79999.9922,50.37557730,16.28175590,0.33000001,
15:01:18:507,0.1808,0.3167,0.8969,0.4114,-0.8897,1.3385,79999.9922,50.37557730,16.28175590,0.33000001,
15:01:18:511,0.1808,0.3167,0.8969,0.4114,-0.8897,1.3385,79999.9922,50.37557730,16.28175590,0.33000001,
15:01:18:535,0.1808,0.3167,0.8969,-0.4165,-0.0436,1.1396,79999.9922,50.37557730,16.28175590,0.33000001,
15:01:18:570,0.0412,0.2776,0.7793,-0.4165,-0.0436,1.1396,79999.9922,50.37557730,16.28175590,0.33000001,
15:01:18:571,0.0629,0.3333,0.7724,-0.4165,-0.0436,1.1396,79999.9922,50.37557730,16.28175590,0.33000001,
15:01:18:572,0.2033,0.3376,0.9090,-0.4165,-0.0436,1.1396,79999.9922,50.37557730,16.28175590,0.33000001,
15:01:18:577,0.2033,0.3376,0.9090,-0.4165,-0.0436,1.1396,79999.9922,50.37557730,16.28175590,0.33000001,
15:01:18:593,0.2261,0.3315,1.0196,-0.4165,-0.0436,1.1396,79999.9922,50.37557730,16.28175590,0.33000001,
15:01:18:603,0.2261,0.3315,1.0196,-1.7763,-0.0073,-0.6395,79999.9922,50.37557730,16.28175590,0.33000001,
15:01:18:628,0.1654,0.3220,1.0548,-1.7763,-0.0073,-0.6395,79999.9922,50.37557730,16.28175590,0.33000001,
15:01:18:646,0.1654,0.3220,1.0548,-1.7763,-0.0073,-0.6395,79999.9922,50.37557730,16.28175590,0.33000001,
15:01:18:672,0.1654,0.3220,1.0548,-0.3484,0.3346,0.2231,79999.9922,50.37557730,16.28175590,0.33000001,
15:01:18:695,0.0923,0.2740,1.0463,-0.3484,0.3346,0.2231,79999.9922,50.37557730,16.28175590,0.33000001,
15:01:18:696,0.0941,0.3234,1.0007,-0.3484,0.3346,0.2231,79999.9922,50.37557730,16.28175590,0.33000001,
15:01:18:696,0.0874,0.3141,1.0107,-0.3484,0.3346,0.2231,79999.9922,50.37557730,16.28175590,0.33000001,
15:01:18:696,0.0879,0.3164,0.9726,-0.3484,0.3346,0.2231,79999.9922,50.37557730,16.28175590,0.33000001,
15:01:18:714,0.0879,0.3164,0.9726,-0.3484,0.3346,0.2231,79999.9922,50.37557730,16.28175590,0.33000001,
15:01:18:715,0.0560,0.3401,0.9496,-0.3484,0.3346,0.2231,79999.9922,50.37557730,16.28175590,0.33000001,
15:01:18:741,0.0560,0.3401,0.9496,-0.7992,0.0202,0.5907,79999.9922,50.37557730,16.28175590,0.33000001,
15:01:18:757,0.0949,0.3251,0.9013,-0.7992,0.0202,0.5907,79999.9922,50.37557730,16.28175590,0.33000001,
15:01:18:759,0.0682,0.3293,0.9285,-0.7992,0.0202,0.5907,79999.9922,50.37557730,16.28175590,0.33000001,
15:01:18:782,0.0682,0.3293,0.9285,-0.7992,0.0202,0.5907,79999.9922,50.37557730,16.28175590,0.33000001,
15:01:18:783,0.0539,0.3011,0.9208,-0.7992,0.0202,0.5907,79999.9922,50.37557730,16.28175590,0.33000001,
15:01:18:808,0.0539,0.3011,0.9208,-0.7840,0.1936,-0.1839,79999.9922,50.37557730,16.28175590,0.33000001,
15:01:18:849,0.0545,0.2899,0.8968,-0.7840,0.1936,-0.1839,79999.9922,50.37557730,16.28175590,0.33000001,
15:01:18:850,0.0653,0.2560,0.8802,-0.7840,0.1936,-0.1839,79999.9922,50.37557730,16.28175590,0.33000001,
15:01:18:851,0.1013,0.2235,0.9057,-0.7840,0.1936,-0.1839,79999.9922,50.37557730,16.28175590,0.33000001,
15:01:18:852,0.1013,0.2235,0.9057,-0.7840,0.1936,-0.1839,79999.9922,50.37557730,16.28175590,0.33000001,
15:01:18:875,0.1013,0.2235,0.9057,-0.8582,-0.0491,-0.4235,79999.9922,50.37557730,16.28175590,0.33000001,
15:01:18:883,0.1013,0.2235,0.9057,-0.8582,-0.0491,-0.4235,38865.0156,50.37557730,16.28175590,0.33000001,
15:01:18:884,0.0450,0.2554,0.9485,-0.8582,-0.0491,-0.4235,38865.0156,50.37557730,16.28175590,0.33000001,
15:01:18:885,0.0248,0.2655,0.9441,-0.8582,-0.0491,-0.4235,38865.0156,50.37557730,16.28175590,0.33000001,
15:01:18:917,0.0248,0.2655,0.9441,-0.8582,-0.0491,-0.4235,38865.0156,50.37557730,16.28175590,0.33000001,
15:01:18:943,0.0248,0.2655,0.9441,-0.7255,-0.6681,-0.2126,38865.0156,50.37557730,16.28175590,0.33000001,
15:01:18:947,0.0369,0.2712,0.9202,-0.7255,-0.6681,-0.2126,38865.0156,50.37557730,16.28175590,0.33000001,
15:01:18:948,0.0353,0.2801,0.8742,-0.7255,-0.6681,-0.2126,38865.0156,50.37557730,16.28175590,0.33000001,
15:01:18:949,-0.0159,0.2967,0.8322,-0.7255,-0.6681,-0.2126,38865.0156,50.37557730,16.28175590,0.33000001,
15:01:18:986,-0.0159,0.2967,0.8322,-0.7255,-0.6681,-0.2126,38865.0156,50.37557730,16.28175590,0.33000001,
15:01:19:010,-0.0159,0.2967,0.8322,-0.9360,-0.0649,-0.6330,38865.0156,50.37557730,16.28175590,0.33000001,
15:01:19:012,0.0018,0.3214,0.8648,-0.9360,-0.0649,-0.6330,38865.0156,50.37557730,16.28175590,0.33000001,
15:01:19:013,0.0275,0.3317,0.8579,-0.9360,-0.0649,-0.6330,38865.0156,50.37557730,16.28175590,0.33000001,
15:01:19:014,0.0684,0.3063,0.8607,-0.9360,-0.0649,-0.6330,38865.0156,50.37557730,16.28175590,0.33000001,
15:01:19:043,0.0684,0.3063,0.8607,-0.9360,-0.0649,-0.6330,38927.9922,50.37557730,16.28175590,0.33000001,
15:01:19:045,0.0808,0.2729,0.9065,-0.9360,-0.0649,-0.6330,38927.9922,50.37557730,16.28175590,0.33000001,
15:01:19:053,0.0808,0.2729,0.9065,-0.9360,-0.0649,-0.6330,38927.9922,50.37557730,16.28175590,0.33000001,
15:01:19:078,0.0808,0.2729,0.9065,-0.7286,0.9109,-0.9096,38927.9922,50.37557730,16.28175590,0.33000001,
15:01:19:111,0.1154,0.2412,0.9975,-0.7286,0.9109,-0.9096,38927.9922,50.37557730,16.28175590,0.33000001,
15:01:19:115,0.0947,0.2224,1.0386,-0.7286,0.9109,-0.9096,38927.9922,50.37557730,16.28175590,0.33000001,
15:01:19:118,0.0994,0.1812,1.0465,-0.7286,0.9109,-0.9096,38927.9922,50.37557730,16.28175590,0.33000001,
15:01:19:122,0.0994,0.1812,1.0465,-0.7286,0.9109,-0.9096,38927.9922,50.37557730,16.28175590,0.33000001,
15:01:19:147,0.0994,0.1812,1.0465,0.0847,0.4377,0.1834,38927.9922,50.37557730,16.28175590,0.33000001,
15:01:19:177,0.0876,0.1870,1.0610,0.0847,0.4377,0.1834,38927.9922,50.37557730,16.28175590,0.33000001,
15:01:19:179,0.0493,0.2019,1.0765,0.0847,0.4377,0.1834,38927.9922,50.37557730,16.28175590,0.33000001,
15:01:19:181,0.0378,0.1912,1.0851,0.0847,0.4377,0.1834,38927.9922,50.37557730,16.28175590,0.33000001,
15:01:19:189,0.0378,0.1912,1.0851,0.0847,0.4377,0.1834,38927.9922,50.37557730,16.28175590,0.33000001,
15:01:19:204,0.0378,0.1912,1.0851,0.0847,0.4377,0.1834,43154.9805,50.37557730,16.28175590,0.33000001,
15:01:19:206,0.0706,0.1701,1.0831,0.0847,0.4377,0.1834,43154.9805,50.37557730,16.28175590,0.33000001,
15:01:19:208,0.0648,0.1867,1.0558,0.0847,0.4377,0.1834,43154.9805,50.37557730,16.28175590,0.33000001,
15:01:19:214,0.0648,0.1867,1.0558,-0.0505,-0.0840,0.8555,43154.9805,50.37557730,16.28175590,0.33000001,
15:01:19:254,0.0419,0.1892,1.0148,-0.0505,-0.0840,0.8555,43154.9805,50.37557730,16.28175590,0.33000001,
15:01:19:258,0.0324,0.2082,0.9817,-0.0505,-0.0840,0.8555,43154.9805,50.37557730,16.28175590,0.33000001,
15:01:19:259,0.0324,0.2082,0.9817,-0.0505,-0.0840,0.8555,43154.9805,50.37557730,16.28175590,0.33000001,
15:01:19:270,0.0367,0.2168,0.9550,-0.0505,-0.0840,0.8555,43154.9805,50.37557730,16.28175590,0.33000001,
15:01:19:281,0.0367,0.2168,0.9550,-0.1433,-0.3057,0.7897,43154.9805,50.37557730,16.28175590,0.33000001,
15:01:19:325,0.0367,0.2168,0.9550,-0.1433,-0.3057,0.7897,43154.9805,50.37556519,16.28176197,0.25999999,
15:01:19:333,0.0492,0.2152,0.9441,-0.1433,-0.3057,0.7897,43154.9805,50.37556519,16.28176197,0.25999999,
15:01:19:335,0.0555,0.2201,0.9389,-0.1433,-0.3057,0.7897,43154.9805,50.37556519,16.28176197,0.25999999,
15:01:19:338,0.0594,0.2211,0.9863,-0.1433,-0.3057,0.7897,43154.9805,50.37556519,16.28176197,0.25999999,
15:01:19:351,0.0594,0.2211,0.9863,-0.3362,0.0614,-0.1587,43154.9805,50.37556519,16.28176197,0.25999999,
15:01:19:363,0.0594,0.2211,0.9863,-0.3362,0.0614,-0.1587,40709.9922,50.37556519,16.28176197,0.25999999,
15:01:19:364,0.0413,0.2087,1.0141,-0.3362,0.0614,-0.1587,40709.9922,50.37556519,16.28176197,0.25999999,
15:01:19:394,0.0413,0.2087,1.0141,-0.3362,0.0614,-0.1587,40709.9922,50.37556519,16.28176197,0.25999999,
15:01:19:418,0.0413,0.2087,1.0141,-0.2182,0.0912,-0.0507,40709.9922,50.37556519,16.28176197,0.25999999,
15:01:19:431,0.0436,0.2016,1.0301,-0.2182,0.0912,-0.0507,40709.9922,50.37556519,16.28176197,0.25999999,
15:01:19:433,0.0343,0.2028,1.0182,-0.2182,0.0912,-0.0507,40709.9922,50.37556519,16.28176197,0.25999999,
15:01:19:436,0.0223,0.2028,0.9876,-0.2182,0.0912,-0.0507,40709.9922,50.37556519,16.28176197,0.25999999,
15:01:19:461,0.0223,0.2028,0.9876,-0.2182,0.0912,-0.0507,40709.9922,50.37556519,16.28176197,0.25999999,
15:01:19:486,0.0223,0.2028,0.9876,-0.3876,-0.0861,0.2561,40709.9922,50.37556519,16.28176197,0.25999999,
15:01:19:497,0.0407,0.2082,0.9826,-0.3876,-0.0861,0.2561,40709.9922,50.37556519,16.28176197,0.25999999,
15:01:19:501,0.0410,0.2146,0.9809,-0.3876,-0.0861,0.2561,40709.9922,50.37556519,16.28176197,0.25999999,
15:01:19:504,0.0248,0.2132,0.9629,-0.3876,-0.0861,0.2561,40709.9922,50.37556519,16.28176197,0.25999999,
15:01:19:524,0.0248,0.2132,0.9629,-0.3876,-0.0861,0.2561,41799.9844,50.37556519,16.28176197,0.25999999,
15:01:19:528,0.0203,0.2038,0.9578,-0.3876,-0.0861,0.2561,41799.9844,50.37556519,16.28176197,0.25999999,
15:01:19:531,0.0275,0.1977,0.9720,-0.3876,-0.0861,0.2561,41799.9844,50.37556519,16.28176197,0.25999999,
15:01:19:535,0.0275,0.1977,0.9720,-0.3876,-0.0861,0.2561,41799.9844,50.37556519,16.28176197,0.25999999,
15:01:19:554,0.0275,0.1977,0.9720,-0.3796,0.0045,-0.0980,41799.9844,50.37556519,16.28176197,0.25999999,
15:01:19:591,0.0294,0.1950,0.9851,-0.3796,0.0045,-0.0980,41799.9844,50.37556519,16.28176197,0.25999999,
15:01:19:595,0.0280,0.1930,0.9980,-0.3796,0.0045,-0.0980,41799.9844,50.37556519,16.28176197,0.25999999,
15:01:19:598,0.0454,0.2015,0.9969,-0.3796,0.0045,-0.0980,41799.9844,50.37556519,16.28176197,0.25999999,
15:01:19:601,0.0454,0.2015,0.9969,-0.3796,0.0045,-0.0980,41799.9844,50.37556519,16.28176197,0.25999999,
15:01:19:622,0.0454,0.2015,0.9969,-0.4554,-0.2076,-0.0122,41799.9844,50.37556519,16.28176197,0.25999999,
15:01:19:657,0.0452,0.2016,0.9831,-0.4554,-0.2076,-0.0122,41799.9844,50.37556519,16.28176197,0.25999999,
15:01:19:660,0.0394,0.2055,0.9770,-0.4554,-0.2076,-0.0122,41799.9844,50.37556519,16.28176197,0.25999999,
15:01:19:663,0.0460,0.2011,0.9811,-0.4554,-0.2076,-0.0122,41799.9844,50.37556519,16.28176197,0.25999999,
15:01:19:666,0.0460,0.2011,0.9811,-0.4554,-0.2076,-0.0122,41799.9844,50.37556519,16.28176197,0.25999999,
15:01:19:684,0.0460,0.2011,0.9811,-0.4554,-0.2076,-0.0122,42171.9766,50.37556519,16.28176197,0.25999999,
15:01:19:688,0.0507,0.2111,0.9900,-0.4554,-0.2076,-0.0122,42171.9766,50.37556519,16.28176197,0.25999999,
15:01:19:691,0.0507,0.2111,0.9900,-0.2977,-0.2298,0.0945,42171.9766,50.37556519,16.28176197,0.25999999,
15:01:19:731,0.0507,0.2111,0.9900,-0.2977,-0.2298,0.0945,42171.9766,50.37556519,16.28176197,0.25999999,
15:01:19:750,0.0536,0.2176,0.9975,-0.2977,-0.2298,0.0945,42171.9766,50.37556519,16.28176197,0.25999999,
15:01:19:754,0.0630,0.2160,1.0005,-0.2977,-0.2298,0.0945,42171.9766,50.37556519,16.28176197,0.25999999,
15:01:19:757,0.0586,0.2281,1.0024,-0.2977,-0.2298,0.0945,42171.9766,50.37556519,16.28176197,0.25999999,
15:01:19:760,0.0586,0.2281,1.0024,-0.2154,-0.2196,0.1105,42171.9766,50.37556519,16.28176197,0.25999999,
15:01:19:801,0.0586,0.2281,1.0024,-0.2154,-0.2196,0.1105,42171.9766,50.37556519,16.28176197,0.25999999,
15:01:19:817,0.0620,0.2329,0.9988,-0.2154,-0.2196,0.1105,42171.9766,50.37556519,16.28176197,0.25999999,
15:01:19:819,0.0640,0.2301,0.9978,-0.2154,-0.2196,0.1105,42171.9766,50.37556519,16.28176197,0.25999999,
15:01:19:821,0.0648,0.2352,0.9988,-0.2154,-0.2196,0.1105,42171.9766,50.37556519,16.28176197,0.25999999,
15:01:19:822,0.0714,0.2376,0.9873,-0.2154,-0.2196,0.1105,42171.9766,50.37556519,16.28176197,0.25999999,
15:01:19:825,0.0714,0.2376,0.9873,-0.0828,-0.1634,0.2267,42171.9766,50.37556519,16.28176197,0.25999999,
15:01:19:843,0.0714,0.2376,0.9873,-0.0828,-0.1634,0.2267,41427.9922,50.37556519,16.28176197,0.25999999,
15:01:19:845,0.0732,0.2387,0.9628,-0.0828,-0.1634,0.2267,41427.9922,50.37556519,16.28176197,0.25999999,
15:01:19:868,0.0732,0.2387,0.9628,-0.0828,-0.1634,0.2267,41427.9922,50.37556519,16.28176197,0.25999999,
15:01:19:893,0.0732,0.2387,0.9628,0.0372,-0.1581,0.1427,41427.9922,50.37556519,16.28176197,0.25999999,
15:01:19:911,0.0660,0.2404,0.9511,0.0372,-0.1581,0.1427,41427.9922,50.37556519,16.28176197,0.25999999,
15:01:19:914,0.0587,0.2454,0.9524,0.0372,-0.1581,0.1427,41427.9922,50.37556519,16.28176197,0.25999999,
15:01:19:917,0.0505,0.2521,0.9544,0.0372,-0.1581,0.1427,41427.9922,50.37556519,16.28176197,0.25999999,
15:01:19:934,0.0505,0.2521,0.9544,0.0372,-0.1581,0.1427,41427.9922,50.37556519,16.28176197,0.25999999,
15:01:19:964,0.0505,0.2521,0.9544,0.0107,-0.1332,-0.1897,41427.9922,50.37556519,16.28176197,0.25999999,
15:01:19:966,0.0472,0.2578,0.9573,0.0107,-0.1332,-0.1897,41427.9922,50.37556519,16.28176197,0.25999999,
15:01:19:967,0.0519,0.2473,0.9480,0.0107,-0.1332,-0.1897,41427.9922,50.37556519,16.28176197,0.25999999,
15:01:19:977,0.0511,0.2544,0.9430,0.0107,-0.1332,-0.1897,41427.9922,50.37556519,16.28176197,0.25999999,
15:01:20:002,0.0511,0.2544,0.9430,0.0107,-0.1332,-0.1897,41427.9922,50.37556519,16.28176197,0.25999999,
15:01:20:005,0.0511,0.2544,0.9430,0.0107,-0.1332,-0.1897,38428.0234,50.37556519,16.28176197,0.25999999,
15:01:20:007,0.0432,0.2502,0.9472,0.0107,-0.1332,-0.1897,38428.0234,50.37556519,16.28176197,0.25999999,
15:01:20:029,0.0432,0.2502,0.9472,-0.0975,-0.0482,-0.1857,38428.0234,50.37556519,16.28176197,0.25999999,
15:01:20:070,0.0432,0.2502,0.9472,-0.0975,-0.0482,-0.1857,38428.0234,50.37556519,16.28176197,0.25999999,
15:01:20:073,0.0488,0.2516,0.9598,-0.0975,-0.0482,-0.1857,38428.0234,50.37556519,16.28176197,0.25999999,
15:01:20:076,0.0416,0.2558,0.9609,-0.0975,-0.0482,-0.1857,38428.0234,50.37556519,16.28176197,0.25999999,
15:01:20:078,0.0408,0.2484,0.9624,-0.0975,-0.0482,-0.1857,38428.0234,50.37556519,16.28176197,0.25999999,
15:01:20:095,0.0408,0.2484,0.9624,-0.1330,-0.0518,-0.1269,38428.0234,50.37556519,16.28176197,0.25999999,
15:01:20:138,0.0412,0.2536,0.9678,-0.1330,-0.0518,-0.1269,38428.0234,50.37556519,16.28176197,0.25999999,
15:01:20:142,0.0342,0.2569,0.9702,-0.1330,-0.0518,-0.1269,38428.0234,50.37556519,16.28176197,0.25999999,
15:01:20:145,0.0241,0.2556,0.9682,-0.1330,-0.0518,-0.1269,38428.0234,50.37556519,16.28176197,0.25999999,
15:01:20:147,0.0287,0.2613,0.9596,-0.1330,-0.0518,-0.1269,38428.0234,50.37556519,16.28176197,0.25999999,
15:01:20:150,0.0287,0.2613,0.9596,-0.1330,-0.0518,-0.1269,38428.0234,50.37556519,16.28176197,0.25999999,
15:01:20:163,0.0287,0.2613,0.9596,-0.1330,-0.0518,-0.1269,37877.0195,50.37556519,16.28176197,0.25999999,
15:01:20:165,0.0368,0.2572,0.9569,-0.1330,-0.0518,-0.1269,37877.0195,50.37556519,16.28176197,0.25999999,
15:01:20:167,0.0368,0.2572,0.9569,-0.1883,-0.0255,-0.0126,37877.0195,50.37556519,16.28176197,0.25999999,
15:01:20:206,0.0368,0.2572,0.9569,-0.1883,-0.0255,-0.0126,37877.0195,50.37556519,16.28176197,0.25999999,
15:01:20:231,0.0368,0.2572,0.9569,-0.1388,0.1082,-0.0856,37877.0195,50.37556519,16.28176197,0.25999999,
15:01:20:235,0.0345,0.2616,0.9574,-0.1388,0.1082,-0.0856,37877.0195,50.37556519,16.28176197,0.25999999,
15:01:20:238,0.0241,0.2421,0.9116,-0.1388,0.1082,-0.0856,37877.0195,50.37556519,16.28176197,0.25999999,
15:01:20:239,0.0482,0.2257,0.9218,-0.1388,0.1082,-0.0856,37877.0195,50.37556519,16.28176197,0.25999999,
15:01:20:257,0.0685,0.2920,1.1059,-0.1388,0.1082,-0.0856,37877.0195,50.37556519,16.28176197,0.25999999,
15:01:20:271,-0.0157,0.2572,1.0188,-0.1388,0.1082,-0.0856,37877.0195,50.37556519,16.28176197,0.25999999,
15:01:20:273,-0.0157,0.2572,1.0188,-0.1388,0.1082,-0.0856,37877.0195,50.37556519,16.28176197,0.25999999,
15:01:20:300,-0.0157,0.2572,1.0188,-0.0174,0.0692,-0.0955,37877.0195,50.37556519,16.28176197,0.25999999,
